type,id,mac,rssi,rate,sig_mode,mcs,bandwidth,smoothing,not_sounding,aggregation,stbc,fec_coding,sgi,noise_floor,ampdu_cnt,channel,secondary_channel,local_timestamp,ant,sig_len,rx_state,len,first_word,data,system_timestamp,tello_battery,tello_height,tello_temperature,tello_flight_time,tello_barometer,tello_tof,tello_pitch,tello_roll,tello_yaw,tello_speed_x,tello_speed_y,tello_speed_z,tello_accel_x,tello_accel_y,tello_accel_z
CSI_DATA,49892,60:60:1f:fd:0a:5b,-48,12,0,0,0,0,0,0,0,0,0,-94,0,4,0,485338317,0,67,0,128,1,"[67,48,4,0,-22,18,-22,17,-21,17,-21,16,-21,16,-20,15,-20,15,-19,15,-19,15,-18,14,-17,15,-16,14,-16,14,-15,15,-14,15,-14,16,-15,17,-16,17,-16,15,-16,14,-16,14,-16,12,-17,11,-16,12,-15,12,-4,3,0,0,0,0,0,0,0,0,0,0,0,0,0,0,0,0,0,0,-4,3,-13,13,-14,12,-15,11,-15,11,-15,10,-16,11,-16,11,-16,11,-16,11,-17,11,-17,12,-17,12,-17,12,-17,12,-18,13,-18,13,-18,14,-19,14,-19,14,-19,15,-19,15,-19,16,-20,16,-20,17,-19,18,-19,18]",2026-01-09 12:11:06.285,0,0,0,0,0.0,0,0,0,0,0,0,0,0.0,0.0,0.0
CSI_DATA,49898,60:60:1f:fd:0a:5b,-47,12,0,0,0,0,0,0,0,0,0,-94,0,4,0,485400554,0,67,0,128,1,"[67,48,4,0,7,-24,7,-24,7,-24,8,-23,8,-22,8,-22,7,-21,7,-21,6,-21,6,-20,6,-20,5,-20,5,-20,4,-20,3,-20,3,-20,3,-20,4,-20,4,-19,3,-19,3,-19,4,-18,4,-18,5,-18,5,-19,1,-5,0,0,0,0,0,0,0,0,0,0,0,0,0,0,0,0,0,0,0,-5,3,-18,4,-18,5,-17,5,-17,6,-17,6,-17,6,-17,7,-17,7,-17,7,-18,7,-18,7,-19,7,-19,7,-19,7,-19,7,-20,6,-20,7,-20,7,-21,7,-21,7,-21,7,-22,7,-23,7,-23,6,-23,6,-24]",2026-01-09 12:11:06.346,0,0,0,0,0.0,0,0,0,0,0,0,0,0.0,0.0,0.0
CSI_DATA,49904,60:60:1f:fd:0a:5b,-48,12,0,0,0,0,0,0,0,0,0,-94,0,4,0,485455719,0,67,0,128,1,"[67,48,4,0,-15,-20,-15,-20,-14,-20,-14,-20,-13,-19,-13,-19,-13,-18,-13,-18,-14,-17,-14,-17,-13,-16,-13,-15,-14,-15,-14,-15,-14,-14,-14,-14,-14,-14,-14,-14,-14,-13,-14,-14,-14,-14,-13,-14,-13,-14,-13,-14,-13,-14,-3,-4,0,0,0,0,0,0,0,0,0,0,0,0,0,0,0,0,0,0,-4,-4,-13,-14,-12,-15,-11,-15,-11,-16,-10,-16,-10,-16,-10,-17,-10,-17,-10,-17,-10,-17,-11,-17,-11,-18,-11,-18,-11,-18,-11,-18,-12,-18,-12,-18,-12,-19,-12,-19,-13,-19,-13,-19,-13,-20,-14,-20,-14,-19,-15,-19,-15,-20]",2026-01-09 12:11:06.423,0,0,0,0,0.0,0,0,0,0,0,0,0,0.0,0.0,0.0
CSI_DATA,49908,60:60:1f:fd:0a:5b,-47,12,0,0,0,0,0,0,0,0,0,-94,0,4,0,485495705,0,67,0,128,1,"[67,48,4,0,22,19,22,19,21,19,21,18,20,18,20,17,19,17,20,16,20,15,20,14,19,14,19,13,19,13,20,12,20,12,20,11,20,11,20,11,20,11,19,11,19,12,19,12,19,12,19,12,19,13,4,3,0,0,0,0,0,0,0,0,0,0,0,0,0,0,0,0,0,0,4,2,19,12,18,13,18,14,17,14,17,15,16,16,16,16,16,16,16,17,16,17,17,17,17,17,17,17,17,18,18,18,17,18,16,17,18,18,19,19,19,19,20,18,20,19,21,19,21,19,22,18,23,18]",2026-01-09 12:11:06.494,0,0,0,0,0.0,0,0,0,0,0,0,0,0.0,0.0,0.0
CSI_DATA,49911,60:60:1f:fd:0a:5b,-49,12,0,0,0,0,0,0,0,0,0,-92,0,4,0,485524085,0,67,0,128,1,"[67,48,4,0,-12,-24,-12,-24,-11,-23,-11,-23,-11,-22,-10,-22,-10,-21,-11,-20,-12,-20,-12,-19,-12,-19,-12,-18,-12,-18,-13,-18,-13,-18,-13,-17,-13,-18,-13,-18,-13,-18,-13,-18,-12,-18,-12,-18,-12,-18,-11,-19,-11,-19,-3,-5,0,0,0,0,0,0,0,0,0,0,0,0,0,0,0,0,0,0,-4,-4,-12,-17,-11,-17,-11,-18,-10,-18,-9,-18,-9,-19,-9,-19,-9,-19,-9,-20,-9,-20,-9,-20,-10,-20,-10,-20,-9,-20,-10,-21,-10,-21,-11,-22,-10,-22,-10,-22,-10,-22,-10,-23,-11,-23,-12,-24,-12,-23,-12,-23,-13,-23]",2026-01-09 12:11:06.553,0,0,0,0,0.0,0,0,0,0,0,0,0,0.0,0.0,0.0
CSI_DATA,49914,60:60:1f:fd:0a:5b,-49,12,0,0,0,0,0,0,0,0,0,-92,0,4,0,485556748,0,67,0,128,1,"[67,48,4,0,11,-23,13,-23,14,-22,13,-21,11,-21,11,-20,10,-20,9,-20,9,-20,8,-20,8,-20,7,-20,7,-20,7,-20,7,-20,6,-20,6,-21,6,-22,6,-22,6,-21,7,-21,8,-20,8,-19,9,-19,9,-18,2,-5,0,0,0,0,0,0,0,0,0,0,0,0,0,0,0,0,0,0,1,-5,6,-19,7,-19,8,-19,9,-18,9,-18,10,-18,10,-18,10,-18,10,-17,11,-18,10,-18,10,-19,10,-19,11,-19,11,-19,11,-20,11,-20,11,-20,12,-21,11,-21,12,-21,12,-22,12,-22,11,-22,11,-23,12,-23]",2026-01-09 12:11:06.630,0,0,0,0,0.0,0,0,0,0,0,0,0,0.0,0.0,0.0
CSI_DATA,49931,60:60:1f:fd:0a:5b,-49,12,0,0,0,0,0,0,0,0,0,-92,0,4,0,485724297,0,67,0,128,1,"[67,48,4,0,-20,-13,-20,-12,-20,-12,-20,-12,-19,-11,-19,-11,-19,-10,-19,-9,-19,-9,-19,-8,-19,-8,-20,-7,-20,-7,-20,-6,-21,-6,-21,-6,-21,-6,-22,-6,-21,-6,-21,-7,-21,-7,-21,-8,-21,-8,-22,-8,-22,-9,-6,-3,0,0,0,0,0,0,0,0,0,0,0,0,0,0,0,0,0,0,-5,-3,-20,-10,-19,-11,-19,-12,-18,-12,-18,-13,-18,-14,-18,-14,-17,-14,-17,-14,-17,-15,-18,-15,-18,-15,-18,-15,-17,-15,-17,-15,-18,-15,-18,-14,-18,-15,-18,-15,-18,-15,-18,-14,-19,-14,-19,-14,-19,-14,-20,-13,-20,-13]",2026-01-09 12:11:06.684,0,0,0,0,0.0,0,0,0,0,0,0,0,0.0,0.0,0.0
CSI_DATA,49933,60:60:1f:fd:0a:5b,-49,12,0,0,0,0,0,0,0,0,0,-92,0,4,0,485744752,0,67,0,128,1,"[67,48,4,0,2,-24,2,-24,3,-23,3,-23,3,-23,2,-22,2,-22,1,-22,0,-21,-1,-21,-1,-21,-2,-21,-2,-21,-2,-21,-4,-20,-4,-20,-3,-20,-2,-20,-1,-21,-1,-22,-1,-23,-1,-22,-1,-22,0,-23,-1,-22,-1,-6,0,0,0,0,0,0,0,0,0,0,0,0,0,0,0,0,0,0,-1,-6,-3,-23,-2,-24,-1,-23,0,-21,0,-22,1,-23,1,-23,2,-23,3,-23,4,-23,3,-24,3,-24,4,-24,4,-23,4,-23,4,-24,4,-24,4,-24,4,-24,4,-24,5,-24,4,-24,4,-24,3,-24,2,-24,2,-24]",2026-01-09 12:11:06.738,0,0,0,0,0.0,0,0,0,0,0,0,0,0.0,0.0,0.0
CSI_DATA,49940,60:60:1f:fd:0a:5b,-48,12,0,0,0,0,0,0,0,0,0,-92,0,4,0,485814760,0,67,0,128,1,"[67,48,4,0,-8,24,-8,23,-8,23,-8,23,-8,22,-7,22,-7,21,-6,21,-5,21,-5,21,-5,20,-5,20,-4,20,-4,20,-3,20,-3,20,-3,20,-3,20,-3,20,-3,19,-3,19,-4,18,-4,18,-4,18,-4,18,-1,4,0,0,0,0,0,0,0,0,0,0,0,0,0,0,0,0,0,0,-1,5,-2,20,-3,20,-4,20,-5,20,-5,20,-6,20,-6,21,-6,21,-7,22,-8,22,-8,23,-8,23,-9,23,-9,22,-9,23,-9,23,-9,23,-10,23,-10,23,-10,23,-10,23,-10,24,-10,24,-9,24,-8,24,-8,24]",2026-01-09 12:11:06.791,0,0,0,0,0.0,0,0,0,0,0,0,0,0.0,0.0,0.0
CSI_DATA,49943,60:60:1f:fd:0a:5b,-48,12,0,0,0,0,0,0,0,0,0,-92,0,4,0,485843875,0,67,0,128,1,"[67,48,4,0,-1,25,-1,25,-1,25,-1,24,-1,24,-1,23,0,23,0,22,1,22,1,22,1,21,1,21,2,21,3,21,4,21,4,21,3,21,2,21,2,21,2,20,2,20,2,20,1,20,1,20,0,19,0,4,0,0,0,0,0,0,0,0,0,0,0,0,0,0,0,0,0,0,0,4,1,19,0,19,0,19,-1,18,-1,19,-1,20,-1,20,-1,20,-2,21,-2,22,-2,22,-2,23,-2,23,-3,23,-3,23,-3,24,-3,24,-3,24,-3,24,-3,24,-3,25,-2,25,-2,25,-2,26,-1,25,-1,26]",2026-01-09 12:11:06.847,0,0,0,0,0.0,0,0,0,0,0,0,0,0.0,0.0,0.0
CSI_DATA,49946,60:60:1f:fd:0a:5b,-49,12,0,0,0,0,0,0,0,0,0,-92,0,4,0,485873839,0,67,0,128,1,"[67,48,4,0,-1,27,-1,27,-1,27,-1,26,-1,26,0,25,0,25,1,24,1,24,2,24,2,23,2,23,2,23,3,23,3,23,3,23,3,23,3,23,3,23,2,22,2,22,1,22,1,22,0,22,-1,22,-1,5,0,0,0,0,0,0,0,0,0,0,0,0,0,0,0,0,0,0,0,4,0,19,-1,19,-1,18,-1,18,-1,19,-1,19,-1,19,-1,20,-1,20,-1,21,-1,22,-1,23,-1,23,-2,23,-2,23,-1,24,-1,24,-1,25,-2,25,-2,25,-1,26,0,27,-1,28,-2,27,-1,27,1,27]",2026-01-09 12:11:06.908,0,0,0,0,0.0,0,0,0,0,0,0,0,0.0,0.0,0.0
CSI_DATA,49949,60:60:1f:fd:0a:5b,-49,12,0,0,0,0,0,0,0,0,0,-92,0,4,0,485909333,0,67,0,128,1,"[67,48,4,0,-6,-27,-6,-26,-6,-26,-6,-26,-5,-25,-5,-25,-6,-25,-6,-24,-7,-24,-8,-24,-7,-23,-7,-22,-8,-23,-8,-23,-8,-23,-8,-23,-8,-23,-7,-22,-6,-22,-6,-22,-6,-22,-5,-22,-5,-22,-5,-23,-3,-23,-1,-6,0,0,0,0,0,0,0,0,0,0,0,0,0,0,0,0,0,0,-2,-5,-5,-18,-4,-18,-3,-17,-3,-17,-3,-17,-3,-18,-3,-18,-4,-18,-4,-18,-4,-19,-5,-20,-6,-20,-5,-21,-5,-21,-5,-21,-6,-22,-6,-23,-6,-23,-6,-23,-6,-24,-6,-24,-6,-25,-7,-26,-7,-26,-8,-26,-8,-26]",2026-01-09 12:11:06.970,0,0,0,0,0.0,0,0,0,0,0,0,0,0.0,0.0,0.0
CSI_DATA,49966,60:60:1f:fd:0a:5b,-50,12,0,0,0,0,0,0,0,0,0,-92,0,4,0,486073881,0,67,0,128,1,"[67,48,4,0,20,16,20,16,19,16,18,16,18,16,17,15,17,15,17,14,17,14,16,14,16,14,16,13,15,13,15,13,15,12,14,12,14,12,14,12,13,11,13,11,12,11,11,10,11,10,11,10,11,11,2,2,0,0,0,0,0,0,0,0,0,0,0,0,0,0,0,0,0,0,3,2,11,10,11,10,10,11,10,10,9,10,9,10,9,10,9,10,10,9,10,9,11,9,12,9,13,9,13,9,14,10,15,10,16,10,16,10,17,11,18,11,18,11,19,12,20,13,20,13,21,13,21,14]",2026-01-09 12:11:07.036,0,0,0,0,0.0,0,0,0,0,0,0,0,0.0,0.0,0.0
CSI_DATA,49969,60:60:1f:fd:0a:5b,-51,12,0,0,0,0,0,0,0,0,0,-92,0,4,0,486108202,0,67,0,128,1,"[67,48,4,0,-9,-28,-9,-28,-8,-28,-7,-28,-7,-27,-7,-27,-6,-26,-7,-26,-7,-26,-7,-25,-7,-24,-7,-24,-7,-24,-7,-24,-7,-23,-7,-23,-6,-22,-6,-22,-6,-22,-6,-21,-5,-20,-5,-20,-4,-20,-4,-20,-4,-20,-1,-5,0,0,0,0,0,0,0,0,0,0,0,0,0,0,0,0,0,0,-2,-5,-4,-18,-3,-18,-2,-17,-2,-17,-1,-16,-1,-16,-1,-16,-2,-16,-2,-16,-3,-16,-4,-16,-5,-17,-5,-17,-6,-17,-6,-18,-7,-19,-8,-20,-8,-21,-8,-21,-9,-22,-9,-23,-9,-24,-10,-25,-10,-26,-11,-26,-11,-27]",2026-01-09 12:11:07.088,0,0,0,0,0.0,0,0,0,0,0,0,0,0.0,0.0,0.0
CSI_DATA,49972,60:60:1f:fd:0a:5b,-53,12,0,0,0,0,0,0,0,0,0,-92,0,4,0,486134451,0,67,0,128,1,"[67,48,4,0,19,-20,20,-20,20,-19,20,-18,20,-18,19,-17,19,-17,18,-17,18,-17,18,-17,17,-16,17,-16,17,-16,16,-17,16,-17,16,-16,16,-16,16,-17,16,-16,16,-15,15,-14,15,-14,15,-13,15,-13,16,-13,4,-4,0,0,0,0,0,0,0,0,0,0,0,0,0,0,0,0,0,0,3,-3,12,-12,13,-11,13,-10,13,-9,13,-9,14,-8,13,-8,13,-8,13,-8,13,-9,12,-9,12,-10,12,-11,12,-11,12,-12,13,-13,13,-14,14,-15,14,-15,14,-16,15,-17,16,-17,17,-17,17,-18,17,-19,18,-20]",2026-01-09 12:11:07.139,0,0,0,0,0.0,0,0,0,0,0,0,0,0.0,0.0,0.0
CSI_DATA,49982,60:60:1f:fd:0a:5b,-51,12,0,0,0,0,0,0,0,0,0,-92,0,4,0,486233822,0,67,0,128,1,"[67,48,4,0,-26,-4,-26,-4,-26,-4,-25,-4,-24,-4,-23,-3,-23,-3,-22,-2,-22,-2,-21,-2,-21,-1,-20,-1,-20,0,-20,0,-19,1,-19,1,-19,1,-19,2,-18,2,-18,2,-18,2,-17,2,-18,1,-18,1,-18,1,-5,0,0,0,0,0,0,0,0,0,0,0,0,0,0,0,0,0,0,0,-4,0,-16,3,-16,2,-17,2,-17,1,-17,1,-18,1,-18,1,-19,1,-20,1,-21,1,-22,1,-23,1,-23,0,-23,0,-24,-1,-25,-1,-26,-1,-26,-2,-26,-2,-26,-2,-27,-3,-27,-3,-28,-3,-28,-3,-27,-3,-27,-3]",2026-01-09 12:11:07.216,0,0,0,0,0.0,0,0,0,0,0,0,0,0.0,0.0,0.0
CSI_DATA,49984,60:60:1f:fd:0a:5b,-51,12,0,0,0,0,0,0,0,0,0,-92,0,4,0,486255891,0,67,0,128,1,"[67,48,4,0,11,-23,11,-23,11,-23,11,-22,10,-21,10,-20,9,-20,8,-20,8,-20,7,-20,7,-19,6,-19,5,-18,5,-18,4,-18,3,-17,3,-17,3,-17,2,-18,1,-18,1,-18,0,-17,0,-17,1,-18,3,-17,1,-5,0,0,0,0,0,0,0,0,0,0,0,0,0,0,0,0,0,0,0,-4,4,-16,4,-16,5,-16,5,-16,5,-16,6,-16,6,-16,6,-17,6,-18,7,-18,7,-19,7,-21,7,-21,8,-21,8,-22,8,-23,9,-23,10,-23,10,-23,10,-23,11,-24,11,-24,11,-24,10,-24,11,-24,11,-24]",2026-01-09 12:11:07.271,0,0,0,0,0.0,0,0,0,0,0,0,0,0.0,0.0,0.0
CSI_DATA,49996,60:60:1f:fd:0a:5b,-54,12,0,0,0,0,0,0,0,0,0,-92,0,4,0,486369913,0,67,0,128,1,"[67,48,4,0,19,-10,19,-11,20,-11,20,-11,19,-11,19,-11,18,-12,18,-12,18,-13,18,-13,18,-13,18,-13,18,-14,17,-15,17,-15,17,-15,17,-15,18,-15,18,-15,18,-14,19,-14,19,-13,19,-13,21,-13,21,-12,5,-3,0,0,0,0,0,0,0,0,0,0,0,0,0,0,0,0,0,0,3,-2,15,-8,16,-7,16,-6,16,-5,16,-4,16,-4,16,-4,15,-4,15,-4,15,-4,15,-4,16,-5,16,-5,16,-6,17,-6,17,-6,18,-7,18,-7,18,-7,18,-7,19,-8,19,-8,20,-8,20,-8,20,-9,20,-10]",2026-01-09 12:11:07.332,0,0,0,0,0.0,0,0,0,0,0,0,0,0.0,0.0,0.0
CSI_DATA,50003,60:60:1f:fd:0a:5b,-54,12,0,0,0,0,0,0,0,0,0,-92,0,4,0,486441035,0,67,0,128,1,"[67,48,4,0,-21,3,-21,4,-21,5,-21,5,-22,6,-22,7,-22,7,-23,8,-23,8,-23,9,-23,9,-23,9,-24,10,-25,10,-25,10,-25,9,-26,9,-26,9,-26,8,-26,7,-26,7,-27,7,-26,6,-27,3,-29,2,-8,0,0,0,0,0,0,0,0,0,0,0,0,0,0,0,0,0,0,0,-5,-1,-19,-3,-18,-4,-18,-5,-17,-6,-17,-7,-17,-7,-16,-7,-16,-7,-15,-7,-15,-6,-16,-6,-16,-5,-16,-5,-16,-4,-17,-4,-17,-4,-18,-3,-18,-3,-18,-3,-18,-2,-19,-2,-20,-2,-22,-3,-21,-1,-20,2,-20,2]",2026-01-09 12:11:07.385,0,0,0,0,0.0,0,0,0,0,0,0,0,0.0,0.0,0.0
CSI_DATA,50008,60:60:1f:fd:0a:5b,-54,12,0,0,0,0,0,0,0,0,0,-92,0,4,0,486494888,0,67,0,128,1,"[67,48,4,0,-21,-16,-22,-16,-23,-16,-23,-15,-23,-15,-24,-15,-25,-15,-27,-14,-28,-14,-29,-14,-28,-15,-29,-15,-30,-16,-30,-17,-30,-17,-30,-17,-30,-17,-29,-19,-28,-20,-28,-20,-27,-19,-26,-19,-27,-21,-27,-23,-26,-22,-7,-6,0,0,0,0,0,0,0,0,0,0,0,0,0,0,0,0,0,0,-4,-5,-14,-19,-12,-20,-11,-20,-10,-19,-9,-20,-8,-20,-8,-20,-8,-19,-7,-19,-8,-18,-9,-18,-10,-18,-10,-17,-10,-17,-11,-18,-12,-18,-13,-18,-13,-18,-14,-18,-14,-18,-15,-18,-15,-18,-17,-18,-18,-18,-19,-17,-20,-17]",2026-01-09 12:11:07.439,0,0,0,0,0.0,0,0,0,0,0,0,0,0.0,0.0,0.0
CSI_DATA,50012,60:60:1f:fd:0a:5b,-56,12,0,0,0,0,0,0,0,0,0,-92,0,4,0,486525858,0,67,0,128,1,"[67,48,4,0,8,-19,8,-19,7,-20,7,-19,7,-19,6,-20,6,-20,5,-21,4,-22,4,-22,4,-22,4,-23,5,-24,5,-24,4,-24,5,-24,5,-24,6,-24,7,-24,8,-23,8,-22,8,-22,9,-23,11,-22,12,-22,3,-6,0,0,0,0,0,0,0,0,0,0,0,0,0,0,0,0,0,0,2,-3,10,-12,11,-11,11,-10,11,-9,11,-9,12,-8,11,-8,11,-8,11,-8,10,-8,10,-9,10,-10,10,-10,10,-11,9,-11,9,-12,9,-13,9,-13,10,-13,10,-14,10,-15,10,-15,10,-16,9,-16,9,-17,8,-17]",2026-01-09 12:11:07.508,0,0,0,0,0.0,0,0,0,0,0,0,0,0.0,0.0,0.0
CSI_DATA,50021,60:60:1f:fd:0a:5b,-53,12,0,0,0,0,0,0,0,0,0,-92,0,4,0,486616282,0,67,0,128,1,"[67,48,4,0,-26,7,-26,7,-25,7,-24,6,-23,6,-22,6,-22,6,-21,7,-20,8,-20,8,-19,8,-19,8,-19,9,-19,9,-18,9,-19,10,-18,10,-18,10,-18,10,-18,9,-18,9,-17,9,-17,8,-18,8,-19,8,-5,1,0,0,0,0,0,0,0,0,0,0,0,0,0,0,0,0,0,0,-5,2,-18,11,-18,10,-19,8,-19,8,-19,7,-20,7,-20,6,-20,6,-20,6,-21,6,-21,6,-21,7,-21,7,-21,7,-22,7,-22,7,-23,7,-23,7,-24,8,-24,8,-24,8,-25,8,-26,8,-26,9,-26,9,-26,9]",2026-01-09 12:11:07.560,0,0,0,0,0.0,0,0,0,0,0,0,0,0.0,0.0,0.0
CSI_DATA,50027,60:60:1f:fd:0a:5b,-52,12,0,0,0,0,0,0,0,0,0,-92,0,4,0,486680857,0,67,0,128,1,"[67,48,4,0,-25,-9,-25,-9,-24,-10,-23,-10,-22,-9,-22,-9,-21,-8,-21,-8,-21,-7,-21,-7,-20,-6,-20,-6,-19,-6,-19,-6,-18,-6,-18,-5,-18,-4,-17,-4,-16,-4,-15,-4,-15,-3,-15,-3,-15,-3,-15,-3,-14,-3,-4,-1,0,0,0,0,0,0,0,0,0,0,0,0,0,0,0,0,0,0,-4,-1,-17,-3,-17,-4,-16,-4,-16,-4,-17,-4,-17,-5,-18,-5,-18,-5,-19,-5,-19,-6,-20,-5,-21,-5,-21,-6,-22,-6,-22,-7,-23,-7,-23,-7,-23,-8,-24,-8,-24,-8,-24,-8,-25,-9,-26,-9,-26,-8,-26,-8,-26,-8]",2026-01-09 12:11:07.677,0,0,0,0,0.0,0,0,0,0,0,0,0,0.0,0.0,0.0
CSI_DATA,50038,60:60:1f:fd:0a:5b,-53,12,0,0,0,0,0,0,0,0,0,-91,0,4,0,486783815,0,67,0,128,1,"[67,48,4,0,-10,-27,-10,-27,-10,-27,-9,-27,-9,-26,-9,-25,-9,-24,-9,-24,-9,-23,-9,-23,-8,-22,-8,-21,-9,-21,-10,-21,-10,-20,-10,-19,-9,-19,-9,-19,-9,-19,-8,-19,-8,-18,-7,-17,-6,-17,-6,-17,-5,-17,-1,-5,0,0,0,0,0,0,0,0,0,0,0,0,0,0,0,0,0,0,-2,-4,-5,-15,-5,-15,-5,-15,-5,-15,-5,-15,-5,-16,-6,-16,-7,-16,-7,-17,-7,-18,-8,-19,-8,-19,-8,-20,-8,-20,-9,-21,-10,-22,-10,-22,-10,-23,-10,-23,-10,-24,-11,-24,-11,-25,-11,-26,-11,-27,-11,-27,-12,-27]",2026-01-09 12:11:07.728,0,0,0,0,0.0,0,0,0,0,0,0,0,0.0,0.0,0.0
CSI_DATA,50042,60:60:1f:fd:0a:5b,-53,12,0,0,0,0,0,0,0,0,0,-91,0,4,0,486824014,0,67,0,128,1,"[67,48,4,0,12,22,12,21,12,21,11,21,10,20,10,20,10,19,10,19,11,18,11,18,10,17,10,16,10,16,11,16,11,15,11,15,10,15,10,15,9,14,9,14,8,14,8,14,8,14,8,14,8,14,2,3,0,0,0,0,0,0,0,0,0,0,0,0,0,0,0,0,0,0,1,3,6,12,6,12,5,11,5,11,5,11,6,12,6,12,7,12,7,12,8,13,9,13,10,14,10,14,10,15,10,16,11,16,11,17,11,17,11,18,12,18,12,19,12,19,13,20,13,20,14,20,14,20]",2026-01-09 12:11:07.812,0,0,0,0,0.0,0,0,0,0,0,0,0,0.0,0.0,0.0
CSI_DATA,50052,60:60:1f:fd:0a:5b,-55,12,0,0,0,0,0,0,0,0,0,-91,0,4,0,486930688,0,67,0,128,1,"[67,48,4,0,-26,-14,-25,-15,-24,-15,-24,-15,-23,-15,-22,-14,-21,-14,-21,-13,-21,-13,-20,-12,-20,-12,-19,-11,-19,-10,-19,-10,-19,-9,-19,-9,-19,-8,-19,-8,-18,-7,-18,-8,-18,-8,-17,-8,-17,-8,-18,-8,-18,-9,-5,-3,0,0,0,0,0,0,0,0,0,0,0,0,0,0,0,0,0,0,-4,-2,-14,-7,-13,-8,-13,-8,-12,-8,-12,-8,-12,-8,-13,-7,-13,-7,-14,-6,-15,-6,-16,-7,-17,-7,-18,-7,-18,-7,-19,-8,-20,-8,-21,-9,-22,-9,-22,-10,-22,-10,-23,-10,-23,-11,-24,-11,-25,-12,-25,-12,-26,-12]",2026-01-09 12:11:07.875,0,0,0,0,0.0,0,0,0,0,0,0,0,0.0,0.0,0.0
CSI_DATA,50057,60:60:1f:fd:0a:5b,-55,8,0,0,0,0,0,0,0,0,0,-91,0,4,0,486979184,0,67,0,128,1,"[67,48,4,0,-21,29,-22,29,-22,28,-22,26,-22,25,-21,24,-21,23,-20,23,-20,23,-19,22,-18,21,-17,21,-16,21,-16,20,-16,19,-16,20,-13,22,-11,22,-11,19,-11,19,-11,20,-13,19,-15,19,-15,20,-16,21,-5,5,0,0,0,0,0,0,0,0,0,0,0,0,0,0,0,0,0,0,-3,3,-12,14,-13,14,-12,14,-11,13,-11,12,-10,12,-10,13,-10,14,-10,14,-10,15,-10,17,-10,19,-11,20,-11,20,-12,21,-12,22,-13,23,-14,24,-14,25,-15,25,-15,26,-17,27,-17,28,-18,29,-17,29,-17,29]",2026-01-09 12:11:07.956,0,0,0,0,0.0,0,0,0,0,0,0,0,0.0,0.0,0.0
CSI_DATA,50061,60:60:1f:fd:0a:5b,-56,12,0,0,0,0,0,0,0,0,0,-91,0,4,0,487019460,0,67,0,128,1,"[67,48,4,0,-18,-27,-17,-27,-16,-27,-15,-27,-14,-27,-13,-26,-13,-25,-13,-25,-14,-24,-13,-23,-13,-22,-12,-22,-12,-21,-12,-21,-12,-20,-12,-19,-12,-18,-12,-18,-12,-17,-12,-17,-11,-17,-11,-16,-11,-16,-11,-16,-11,-16,-3,-4,0,0,0,0,0,0,0,0,0,0,0,0,0,0,0,0,0,0,-2,-4,-7,-14,-6,-14,-6,-14,-5,-13,-5,-13,-5,-13,-6,-12,-7,-13,-8,-13,-9,-13,-10,-13,-11,-14,-12,-14,-12,-15,-13,-16,-14,-17,-15,-18,-15,-18,-15,-19,-15,-20,-16,-21,-16,-22,-18,-23,-19,-24,-20,-24,-20,-25]",2026-01-09 12:11:08.029,0,0,0,0,0.0,0,0,0,0,0,0,0,0.0,0.0,0.0
CSI_DATA,50072,60:60:1f:fd:0a:5b,-56,12,0,0,0,0,0,0,0,0,0,-91,0,4,0,487125565,0,67,0,128,1,"[67,48,4,0,15,23,14,23,14,23,13,23,12,23,12,22,12,22,12,21,12,21,12,21,11,20,11,20,11,19,11,19,11,18,11,18,11,18,10,17,10,17,9,17,9,16,9,16,8,16,8,16,8,16,2,4,0,0,0,0,0,0,0,0,0,0,0,0,0,0,0,0,0,0,1,2,3,11,2,11,2,10,2,10,2,10,2,10,3,9,3,9,4,9,5,10,6,10,7,10,8,11,8,12,9,12,10,13,10,13,11,14,11,15,12,15,12,16,13,17,14,18,15,19,16,19,16,20]",2026-01-09 12:11:08.090,0,0,0,0,0.0,0,0,0,0,0,0,0,0.0,0.0,0.0
CSI_DATA,50080,60:60:1f:fd:0a:5b,-56,8,0,0,0,0,0,0,0,0,0,-91,0,4,0,487204987,0,67,0,128,1,"[67,48,4,0,-22,15,-23,15,-23,15,-24,14,-23,13,-23,13,-22,12,-22,12,-21,13,-21,12,-21,12,-20,11,-20,11,-20,12,-19,11,-19,11,-19,11,-18,11,-17,10,-17,10,-17,9,-17,9,-17,9,-17,9,-17,8,-5,2,0,0,0,0,0,0,0,0,0,0,0,0,0,0,0,0,0,0,-3,0,-11,2,-11,2,-11,2,-10,1,-10,1,-10,2,-9,2,-9,3,-9,4,-10,5,-10,6,-11,7,-11,8,-12,8,-12,9,-13,10,-13,10,-14,11,-15,11,-15,12,-16,13,-17,14,-18,15,-18,15,-19,16,-19,16]",2026-01-09 12:11:08.149,0,0,0,0,0.0,0,0,0,0,0,0,0,0.0,0.0,0.0
CSI_DATA,50085,60:60:1f:fd:0a:5b,-56,8,0,0,0,0,0,0,0,0,0,-91,0,4,0,487257803,0,67,0,128,1,"[67,48,4,0,-3,27,-5,27,-5,26,-5,26,-6,25,-6,25,-5,24,-5,24,-4,24,-4,23,-4,22,-4,22,-4,22,-4,22,-4,21,-3,21,-3,20,-3,20,-4,19,-3,19,-4,19,-4,18,-3,18,-4,18,-5,18,-2,4,0,0,0,0,0,0,0,0,0,0,0,0,0,0,0,0,0,0,-2,2,-5,10,-5,10,-5,9,-5,9,-5,9,-5,9,-4,9,-3,9,-3,9,-2,10,-2,12,-1,12,-1,13,-1,14,-1,15,-1,16,-1,17,-1,18,-1,18,-1,19,-1,20,-1,21,-1,23,0,24,0,24,0,25]",2026-01-09 12:11:08.202,0,0,0,0,0.0,0,0,0,0,0,0,0,0.0,0.0,0.0
CSI_DATA,50087,60:60:1f:fd:0a:5b,-56,8,0,0,0,0,0,0,0,0,0,-91,0,4,0,487275289,0,67,0,128,1,"[67,48,4,0,14,-29,15,-28,15,-28,16,-27,16,-26,15,-26,15,-25,14,-25,14,-25,14,-24,14,-24,14,-23,13,-23,13,-23,13,-22,12,-22,11,-22,12,-22,13,-21,12,-20,9,-19,8,-18,11,-17,13,-19,12,-20,2,-5,0,0,0,0,0,0,0,0,0,0,0,0,0,0,0,0,0,0,2,-3,9,-10,9,-10,9,-9,8,-8,8,-8,8,-8,7,-9,6,-10,6,-11,6,-12,6,-13,6,-15,7,-16,7,-16,7,-17,7,-18,7,-19,8,-20,8,-21,8,-22,9,-23,9,-24,10,-26,11,-27,11,-27,11,-28]",2026-01-09 12:11:08.259,0,0,0,0,0.0,0,0,0,0,0,0,0,0.0,0.0,0.0
CSI_DATA,50096,60:60:1f:fd:0a:5b,-56,8,0,0,0,0,0,0,0,0,0,-91,0,4,0,487366595,0,67,0,128,1,"[67,48,4,0,-20,22,-20,22,-21,21,-21,21,-21,20,-20,19,-20,19,-19,19,-19,19,-19,18,-18,18,-18,18,-17,18,-17,18,-16,18,-16,17,-16,17,-15,17,-15,17,-15,16,-15,16,-15,15,-15,15,-16,15,-16,14,-4,3,0,0,0,0,0,0,0,0,0,0,0,0,0,0,0,0,0,0,-3,1,-11,7,-11,6,-11,6,-11,6,-10,6,-10,6,-10,6,-9,7,-9,8,-10,9,-10,10,-10,11,-10,12,-11,12,-11,13,-12,14,-12,15,-13,15,-13,16,-13,17,-14,18,-15,19,-16,20,-16,21,-17,21,-17,22]",2026-01-09 12:11:08.311,0,0,0,0,0.0,0,0,0,0,0,0,0,0.0,0.0,0.0
CSI_DATA,50102,60:60:1f:fd:0a:5b,-56,8,0,0,0,0,0,0,0,0,0,-91,0,4,0,487423968,0,67,0,128,1,"[67,48,4,0,-18,24,-19,24,-19,24,-20,23,-20,22,-19,21,-19,21,-18,21,-17,21,-17,21,-17,20,-16,20,-16,20,-16,20,-15,20,-15,19,-14,19,-14,18,-14,18,-14,18,-13,17,-13,17,-13,17,-14,17,-14,17,-4,4,0,0,0,0,0,0,0,0,0,0,0,0,0,0,0,0,0,0,-3,2,-10,7,-11,7,-11,6,-10,6,-10,6,-9,6,-9,7,-9,7,-8,8,-8,9,-9,10,-9,12,-9,12,-10,13,-10,14,-11,15,-11,16,-11,16,-12,17,-12,18,-13,19,-14,20,-14,21,-14,22,-14,24,-14,24]",2026-01-09 12:11:08.389,0,0,0,0,0.0,0,0,0,0,0,0,0,0.0,0.0,0.0
CSI_DATA,50108,60:60:1f:fd:0a:5b,-56,8,0,0,0,0,0,0,0,0,0,-91,0,4,0,487494982,0,67,0,128,1,"[67,48,4,0,-27,-6,-27,-6,-26,-7,-25,-8,-25,-8,-24,-8,-24,-7,-24,-7,-24,-6,-23,-6,-22,-6,-22,-5,-22,-5,-22,-5,-22,-4,-21,-4,-21,-4,-21,-4,-20,-4,-20,-4,-19,-5,-19,-5,-19,-5,-19,-5,-19,-5,-5,-2,0,0,0,0,0,0,0,0,0,0,0,0,0,0,0,0,0,0,-3,-2,-11,-5,-11,-6,-11,-6,-10,-5,-10,-5,-10,-5,-10,-5,-10,-4,-11,-4,-12,-3,-13,-3,-14,-3,-15,-3,-15,-3,-16,-3,-17,-3,-18,-3,-19,-3,-19,-3,-20,-3,-21,-3,-22,-3,-23,-4,-24,-3,-25,-3,-26,-3]",2026-01-09 12:11:08.439,0,0,0,0,0.0,0,0,0,0,0,0,0,0.0,0.0,0.0
CSI_DATA,50114,60:60:1f:fd:0a:5b,-55,8,0,0,0,0,0,0,0,0,0,-91,0,4,0,487551344,0,67,0,128,1,"[67,48,4,0,-21,-25,-20,-25,-20,-26,-18,-26,-17,-25,-17,-24,-17,-24,-17,-23,-18,-23,-17,-23,-16,-22,-16,-21,-16,-21,-16,-21,-16,-20,-17,-18,-18,-18,-17,-18,-15,-19,-14,-20,-13,-20,-12,-19,-13,-18,-14,-17,-13,-17,-4,-5,0,0,0,0,0,0,0,0,0,0,0,0,0,0,0,0,0,0,-2,-4,-7,-13,-7,-12,-6,-12,-6,-12,-6,-12,-6,-11,-7,-11,-7,-11,-8,-11,-9,-11,-11,-12,-12,-13,-13,-13,-13,-14,-13,-15,-15,-15,-15,-16,-15,-16,-16,-17,-17,-17,-17,-18,-19,-19,-19,-20,-20,-21,-21,-21,-22,-22]",2026-01-09 12:11:08.496,0,0,0,0,0.0,0,0,0,0,0,0,0,0.0,0.0,0.0
CSI_DATA,50117,60:60:1f:fd:0a:5b,-56,8,0,0,0,0,0,0,0,0,0,-91,0,4,0,487581112,0,67,0,128,1,"[67,48,4,0,25,17,25,17,25,18,23,18,22,18,22,17,21,17,21,16,21,16,21,15,20,15,19,15,20,15,20,14,19,13,19,13,18,13,18,12,17,12,17,12,16,12,16,12,15,12,15,12,15,12,3,3,0,0,0,0,0,0,0,0,0,0,0,0,0,0,0,0,0,0,2,2,9,9,9,9,8,9,8,8,8,8,8,8,8,8,9,7,10,7,11,7,12,7,14,7,14,7,15,8,16,9,17,9,18,9,18,10,19,10,19,10,20,11,22,12,23,13,24,13,25,13,26,13]",2026-01-09 12:11:08.560,0,0,0,0,0.0,0,0,0,0,0,0,0,0.0,0.0,0.0
CSI_DATA,50125,60:60:1f:fd:0a:5b,-55,12,0,0,0,0,0,0,0,0,0,-93,0,4,0,487655717,0,67,0,128,1,"[67,48,4,0,29,-13,30,-12,30,-11,29,-10,29,-10,28,-10,27,-10,27,-10,26,-10,26,-10,25,-10,24,-9,24,-9,23,-10,22,-10,21,-9,21,-10,21,-10,20,-10,19,-10,19,-9,18,-8,18,-8,18,-9,18,-8,4,-2,0,0,0,0,0,0,0,0,0,0,0,0,0,0,0,0,0,0,3,-1,13,-1,12,0,11,0,11,-1,10,-1,10,-1,10,-2,10,-3,10,-4,11,-6,12,-7,13,-8,14,-8,15,-9,16,-9,17,-10,17,-11,18,-11,19,-11,20,-12,21,-13,23,-13,24,-14,25,-14,26,-15,27,-15]",2026-01-09 12:11:08.618,0,0,0,0,0.0,0,0,0,0,0,0,0,0.0,0.0,0.0
CSI_DATA,50130,60:60:1f:fd:0a:5b,-56,12,0,0,0,0,0,0,0,0,0,-93,0,4,0,487716726,0,67,0,128,1,"[67,48,4,0,6,-32,7,-32,8,-31,9,-31,9,-30,9,-29,9,-28,8,-28,7,-28,6,-28,6,-27,6,-26,6,-26,6,-26,5,-25,5,-24,5,-24,5,-23,4,-23,5,-22,5,-21,4,-21,4,-21,4,-20,5,-21,1,-6,0,0,0,0,0,0,0,0,0,0,0,0,0,0,0,0,0,0,2,-3,8,-9,8,-8,7,-7,6,-7,5,-6,4,-7,3,-7,2,-8,1,-9,1,-11,0,-13,0,-14,0,-15,1,-17,1,-18,1,-19,1,-20,1,-21,2,-22,2,-23,2,-25,2,-26,2,-28,2,-29,2,-30,2,-31]",2026-01-09 12:11:08.682,0,0,0,0,0.0,0,0,0,0,0,0,0,0.0,0.0,0.0
CSI_DATA,50132,60:60:1f:fd:0a:5b,-56,12,0,0,0,0,0,0,0,0,0,-93,0,4,0,487735750,0,67,0,128,1,"[67,48,4,0,-29,14,-29,13,-29,13,-29,11,-28,11,-27,11,-27,11,-27,11,-26,11,-26,11,-25,11,-24,10,-24,10,-24,11,-23,11,-21,11,-21,10,-21,10,-20,10,-19,9,-19,8,-18,8,-18,8,-18,8,-18,8,-5,2,0,0,0,0,0,0,0,0,0,0,0,0,0,0,0,0,0,0,-3,-1,-11,-3,-10,-3,-9,-3,-8,-2,-8,-1,-7,0,-7,2,-7,3,-8,5,-9,6,-10,7,-11,8,-12,9,-13,9,-15,10,-16,10,-16,11,-17,11,-18,12,-19,13,-20,13,-21,14,-23,15,-24,15,-24,16,-25,16]",2026-01-09 12:11:08.733,0,0,0,0,0.0,0,0,0,0,0,0,0,0.0,0.0,0.0
CSI_DATA,50137,60:60:1f:fd:0a:5b,-59,8,0,0,0,0,0,0,0,0,0,-93,0,4,0,487785643,0,67,0,128,1,"[67,48,4,0,-4,27,-5,27,-5,27,-6,27,-6,26,-6,25,-5,25,-4,25,-4,25,-4,25,-4,25,-4,24,-4,24,-3,24,-3,23,-3,23,-3,22,-2,22,-2,21,-2,20,-2,20,-2,19,-2,19,-2,19,-3,19,-1,4,0,0,0,0,0,0,0,0,0,0,0,0,0,0,0,0,0,0,-2,0,-8,2,-8,2,-7,1,-5,1,-4,1,-3,2,-2,3,-1,4,0,6,0,7,1,9,1,10,0,11,0,12,-1,13,-1,14,0,15,-1,16,-1,17,-1,18,-1,19,-1,21,-1,22,-1,24,-1,25,-1,25]",2026-01-09 12:11:08.834,0,0,0,0,0.0,0,0,0,0,0,0,0,0.0,0.0,0.0
CSI_DATA,50153,60:60:1f:fd:0a:5b,-62,13,0,0,0,0,0,0,0,0,0,-93,0,4,0,487948909,0,67,0,128,1,"[67,48,4,0,22,-1,22,-1,22,-1,22,-2,22,-3,22,-5,22,-5,22,-6,22,-7,22,-9,23,-9,24,-10,24,-11,25,-10,25,-10,25,-11,25,-9,24,-8,24,-7,23,-6,22,-7,22,-7,21,-6,20,-4,21,-2,5,-1,0,0,0,0,0,0,0,0,0,0,0,0,0,0,0,0,0,0,-3,2,-9,7,-9,6,-8,4,-8,3,-7,2,-6,1,-5,0,-3,-1,-2,-1,0,-1,2,-1,3,0,4,0,5,1,5,1,6,1,7,1,8,0,10,0,11,0,13,-1,15,0,17,0,18,-1,19,-1,20,0]",2026-01-09 12:11:08.900,0,0,0,0,0.0,0,0,0,0,0,0,0,0.0,0.0,0.0
CSI_DATA,50156,60:60:1f:fd:0a:5b,-64,14,0,0,0,0,0,0,0,0,0,-93,0,4,0,487994907,0,67,0,128,1,"[67,48,4,0,-16,17,-15,17,-14,17,-14,18,-12,19,-11,20,-10,21,-9,21,-8,22,-6,25,-4,26,-4,26,-3,27,-4,26,-5,25,-5,24,-6,24,-8,23,-7,23,-2,24,1,25,3,26,-1,28,-7,28,-10,23,-3,5,0,0,0,0,0,0,0,0,0,0,0,0,0,0,0,0,0,0,2,-3,10,-9,10,-8,9,-6,8,-5,7,-3,6,-1,4,0,3,1,1,1,-1,2,-2,2,-4,2,-5,2,-6,2,-6,3,-7,4,-8,5,-9,5,-10,7,-11,9,-12,10,-13,11,-14,12,-14,14,-15,15,-16,15]",2026-01-09 12:11:08.951,0,0,0,0,0.0,0,0,0,0,0,0,0,0.0,0.0,0.0
CSI_DATA,50162,60:60:1f:fd:0a:5b,-67,12,0,0,0,0,0,0,0,0,0,-93,0,4,0,488057626,0,67,0,128,1,"[67,48,4,0,-9,-13,-10,-13,-10,-13,-12,-13,-13,-12,-14,-12,-16,-12,-19,-12,-21,-12,-23,-12,-24,-12,-25,-11,-27,-11,-28,-11,-29,-11,-29,-11,-31,-11,-32,-10,-32,-10,-33,-9,-33,-7,-33,-6,-33,-6,-34,-6,-35,-7,-9,-2,0,0,0,0,0,0,0,0,0,0,0,0,0,0,0,0,0,0,0,6,2,25,-1,25,-3,23,-4,22,-5,20,-6,19,-6,18,-7,16,-7,14,-7,13,-6,12,-5,10,-4,9,-4,8,-4,7,-5,7,-5,6,-5,4,-6,3,-7,1,-8,-1,-8,-3,-8,-5,-7,-6,-8,-8,-9,-10]",2026-01-09 12:11:09.002,0,0,0,0,0.0,0,0,0,0,0,0,0,0.0,0.0,0.0
CSI_DATA,50164,60:60:1f:fd:0a:5b,-68,9,0,0,0,0,0,0,0,0,0,-93,0,4,0,488115373,0,67,0,128,1,"[67,48,4,0,-17,-5,-18,-4,-18,-4,-19,-3,-19,-2,-20,-1,-21,0,-22,2,-24,4,-26,6,-26,7,-27,8,-28,9,-30,8,-33,9,-34,11,-31,11,-29,8,-30,4,-30,3,-29,5,-32,8,-33,8,-32,7,-31,7,-8,1,0,0,0,0,0,0,0,0,0,0,0,0,0,0,0,0,0,0,5,4,22,16,20,15,17,16,14,16,11,15,9,14,7,13,5,11,3,9,2,7,2,5,1,4,1,3,0,2,-1,2,-2,1,-3,1,-4,0,-6,0,-8,-1,-9,-2,-9,-3,-8,-6,-11,-6,-14,-5,-15,-5]",2026-01-09 12:11:09.078,0,0,0,0,0.0,0,0,0,0,0,0,0,0.0,0.0,0.0
CSI_DATA,50169,60:60:1f:fd:0a:5b,-66,13,0,0,0,0,0,0,0,0,0,-93,0,4,0,488169033,0,67,0,128,1,"[67,48,4,0,2,-11,1,-12,0,-12,-1,-12,-3,-13,-5,-13,-6,-13,-7,-14,-9,-14,-12,-14,-15,-13,-17,-12,-19,-13,-20,-14,-21,-14,-23,-13,-23,-15,-22,-18,-21,-17,-23,-18,-26,-19,-27,-19,-25,-19,-22,-20,-21,-22,-5,-6,0,0,0,0,0,0,0,0,0,0,0,0,0,0,0,0,0,0,7,4,29,17,27,18,26,19,24,20,21,21,19,21,17,21,15,20,15,19,14,18,14,16,14,15,14,13,14,12,14,11,13,10,12,9,11,8,11,7,10,5,9,3,9,1,8,-2,7,-4,7,-6,6,-7]",2026-01-09 12:11:09.147,0,0,0,0,0.0,0,0,0,0,0,0,0,0.0,0.0,0.0
CSI_DATA,50177,60:60:1f:fd:0a:5b,-63,13,0,0,0,0,0,0,0,0,0,-93,0,4,0,488256767,0,67,0,128,1,"[67,48,4,0,-17,3,-16,4,-16,5,-15,5,-13,7,-12,8,-11,9,-10,10,-8,11,-6,13,-5,15,-5,16,-4,18,-3,19,-3,20,-2,22,-3,23,-5,24,-5,24,-5,25,-6,25,-7,25,-9,25,-12,24,-14,24,-4,6,0,0,0,0,0,0,0,0,0,0,0,0,0,0,0,0,0,0,-8,-5,-31,-19,-29,-21,-28,-22,-26,-23,-24,-24,-21,-24,-19,-23,-18,-23,-17,-22,-18,-21,-18,-20,-18,-19,-18,-18,-18,-17,-17,-17,-17,-15,-17,-15,-16,-14,-16,-12,-17,-10,-17,-8,-17,-6,-17,-5,-18,-3,-19,-2,-19,-1]",2026-01-09 12:11:09.201,0,0,0,0,0.0,0,0,0,0,0,0,0,0.0,0.0,0.0
CSI_DATA,50181,60:60:1f:fd:0a:5b,-62,13,0,0,0,0,0,0,0,0,0,-93,0,4,0,488301566,0,67,0,128,1,"[67,48,4,0,5,18,6,17,6,16,7,15,8,14,8,13,10,12,10,11,11,9,13,7,15,7,17,6,18,4,19,3,20,3,20,3,20,3,21,3,22,4,20,3,22,4,23,7,21,9,23,11,24,13,6,3,0,0,0,0,0,0,0,0,0,0,0,0,0,0,0,0,0,0,-1,8,-4,34,-6,33,-8,31,-10,30,-12,28,-12,27,-13,25,-14,24,-14,24,-12,23,-11,23,-10,23,-10,23,-10,23,-10,22,-9,22,-9,21,-8,20,-7,20,-5,20,-4,20,-2,20,-1,20,1,20,3,21,3,21]",2026-01-09 12:11:09.267,0,0,0,0,0.0,0,0,0,0,0,0,0,0.0,0.0,0.0
CSI_DATA,50189,60:60:1f:fd:0a:5b,-61,13,0,0,0,0,0,0,0,0,0,-93,0,4,0,488379662,0,67,0,128,1,"[67,48,4,0,-10,14,-9,14,-8,14,-7,13,-6,13,-5,13,-4,13,-2,13,-1,13,1,13,1,13,2,13,4,13,4,14,7,14,10,14,10,15,7,15,5,15,5,16,7,19,9,21,8,21,4,20,0,20,-1,4,0,0,0,0,0,0,0,0,0,0,0,0,0,0,0,0,0,0,-5,3,-20,15,-20,13,-21,11,-21,10,-21,9,-21,7,-20,6,-20,6,-20,5,-20,6,-19,6,-19,7,-19,7,-19,7,-18,7,-18,7,-17,7,-17,7,-16,8,-15,9,-14,10,-14,11,-13,11,-13,13,-12,14,-12,14]",2026-01-09 12:11:09.323,0,0,0,0,0.0,0,0,0,0,0,0,0,0.0,0.0,0.0
CSI_DATA,50193,60:60:1f:fd:0a:5b,-61,13,0,0,0,0,0,0,0,0,0,-93,0,4,0,488422665,0,67,0,128,1,"[67,48,4,0,21,3,21,2,20,1,19,0,18,-1,18,-2,17,-3,16,-4,15,-6,15,-8,14,-9,14,-10,14,-11,14,-12,14,-14,15,-18,17,-17,18,-15,16,-13,17,-13,19,-14,20,-14,20,-13,20,-12,17,-10,3,-3,0,0,0,0,0,0,0,0,0,0,0,0,0,0,0,0,0,0,7,1,28,7,28,9,27,11,25,12,24,14,22,15,21,15,20,16,20,16,20,16,20,15,20,15,19,15,19,15,19,14,19,13,18,13,18,13,18,12,18,11,19,10,20,8,23,6,25,5,25,6,23,5]",2026-01-09 12:11:09.385,0,0,0,0,0.0,0,0,0,0,0,0,0,0.0,0.0,0.0
CSI_DATA,50197,60:60:1f:fd:0a:5b,-61,13,0,0,0,0,0,0,0,0,0,-93,0,4,0,488465464,0,67,0,128,1,"[67,48,4,0,-11,13,-10,13,-10,12,-9,12,-7,12,-6,12,-5,12,-4,12,-3,12,-1,12,0,13,1,13,2,13,2,14,3,15,4,15,4,16,3,16,3,16,3,17,3,17,4,17,2,18,0,18,-2,18,-1,4,0,0,0,0,0,0,0,0,0,0,0,0,0,0,0,0,0,0,-5,4,-18,17,-19,15,-20,14,-21,12,-21,11,-21,9,-21,8,-20,7,-20,7,-20,7,-20,7,-19,7,-19,7,-19,7,-19,7,-18,7,-17,7,-17,7,-16,8,-16,9,-15,10,-15,10,-14,11,-14,12,-14,13,-14,13]",2026-01-09 12:11:09.459,0,0,0,0,0.0,0,0,0,0,0,0,0,0.0,0.0,0.0
CSI_DATA,50210,60:60:1f:fd:0a:5b,-62,8,0,0,0,0,0,0,0,0,0,-93,0,4,0,488569598,0,67,0,128,1,"[67,48,4,0,10,-9,10,-10,9,-10,9,-10,7,-10,6,-10,5,-10,4,-10,2,-11,2,-12,1,-12,0,-12,-1,-13,-2,-14,-3,-15,-4,-16,-4,-17,-5,-17,-5,-18,-5,-19,-4,-19,-4,-20,-3,-21,-2,-22,-1,-23,-1,-6,0,0,0,0,0,0,0,0,0,0,0,0,0,0,0,0,0,0,5,-4,22,-15,22,-13,22,-11,22,-9,22,-8,21,-7,21,-6,20,-6,19,-5,19,-5,18,-5,18,-5,18,-5,17,-5,17,-5,17,-6,17,-6,16,-6,16,-6,15,-6,14,-6,14,-7,14,-7,13,-8,13,-9,12,-9]",2026-01-09 12:11:09.534,0,0,0,0,0.0,0,0,0,0,0,0,0,0.0,0.0,0.0
CSI_DATA,50213,60:60:1f:fd:0a:5b,-62,8,0,0,0,0,0,0,0,0,0,-93,0,4,0,488605834,0,67,0,128,1,"[67,48,4,0,8,15,9,15,9,14,10,13,11,12,11,11,12,9,14,7,16,6,17,5,18,4,18,4,19,3,21,2,25,2,27,0,26,0,23,2,24,2,27,2,27,3,27,5,29,6,31,9,33,11,8,3,0,0,0,0,0,0,0,0,0,0,0,0,0,0,0,0,0,0,1,8,6,33,3,32,1,31,-1,30,-3,29,-4,28,-4,27,-5,26,-5,25,-5,24,-4,24,-4,23,-4,23,-3,22,-3,22,-3,22,-2,21,-2,20,-2,19,-1,19,1,18,2,18,3,18,4,17,5,17,7,17]",2026-01-09 12:11:09.595,0,0,0,0,0.0,0,0,0,0,0,0,0,0.0,0.0,0.0
CSI_DATA,50224,60:60:1f:fd:0a:5b,-64,13,0,0,0,0,0,0,0,0,0,-93,0,4,0,488705755,0,67,0,128,1,"[67,48,4,0,-8,3,-8,4,-8,6,-7,7,-7,9,-6,10,-5,12,-4,13,-3,15,-2,17,-1,19,1,20,2,22,2,23,3,25,4,26,4,27,3,27,3,27,3,28,4,29,5,29,4,30,1,30,-1,31,-1,8,0,0,0,0,0,0,0,0,0,0,0,0,0,0,0,0,0,0,-1,-7,-3,-26,-2,-26,0,-26,2,-26,3,-25,5,-24,6,-23,6,-22,6,-21,6,-20,5,-19,4,-18,4,-18,3,-17,2,-17,1,-16,1,-15,0,-13,-1,-12,-2,-11,-3,-10,-4,-8,-5,-7,-6,-5,-7,-4,-8,-3]",2026-01-09 12:11:09.650,0,0,0,0,0.0,0,0,0,0,0,0,0,0.0,0.0,0.0
CSI_DATA,50229,60:60:1f:fd:0a:5b,-64,13,0,0,0,0,0,0,0,0,0,-93,0,4,0,488753649,0,67,0,128,1,"[67,48,4,0,-6,2,-6,3,-7,4,-7,6,-7,8,-6,10,-6,11,-6,13,-5,15,-4,17,-4,19,-3,21,-2,22,-2,23,-1,24,0,26,0,26,-1,26,-1,26,0,27,1,28,1,28,1,28,-1,29,-2,29,-1,7,0,0,0,0,0,0,0,0,0,0,0,0,0,0,0,0,0,0,2,-6,12,-22,13,-22,14,-21,16,-20,17,-19,17,-17,17,-15,17,-14,17,-14,16,-13,15,-13,14,-13,13,-12,12,-12,11,-12,10,-12,9,-11,8,-11,7,-10,5,-9,4,-8,2,-7,1,-6,-1,-5,-2,-4,-3,-3]",2026-01-09 12:11:09.715,0,0,0,0,0.0,0,0,0,0,0,0,0,0.0,0.0,0.0
CSI_DATA,50237,60:60:1f:fd:0a:5b,-64,9,0,0,0,0,0,0,0,0,0,-93,0,4,0,488823444,0,67,0,128,1,"[67,48,4,0,-11,-1,-13,0,-14,0,-16,1,-17,2,-18,4,-20,5,-21,6,-22,7,-23,9,-24,11,-25,13,-27,14,-28,14,-28,15,-28,16,-29,15,-29,13,-28,12,-28,13,-29,14,-30,14,-31,14,-31,13,-31,12,-8,3,0,0,0,0,0,0,0,0,0,0,0,0,0,0,0,0,0,0,4,-4,18,-15,18,-14,19,-13,19,-11,20,-9,20,-7,20,-6,19,-5,18,-5,17,-5,17,-5,16,-5,15,-5,14,-6,13,-6,12,-6,11,-5,10,-5,8,-5,7,-5,5,-4,3,-4,0,-4,-3,-4,-5,-3,-6,-3]",2026-01-09 12:11:09.767,0,0,0,0,0.0,0,0,0,0,0,0,0,0.0,0.0,0.0
CSI_DATA,50243,60:60:1f:fd:0a:5b,-63,9,0,0,0,0,0,0,0,0,0,-93,0,4,0,488876946,0,67,0,128,1,"[67,48,4,0,3,-12,3,-14,3,-16,3,-17,2,-19,2,-21,1,-23,1,-24,0,-26,-2,-28,-3,-30,-5,-31,-5,-33,-5,-34,-6,-35,-6,-36,-5,-36,-3,-36,-3,-35,-3,-35,-4,-35,-6,-35,-5,-34,-3,-34,-2,-34,-1,-9,0,0,0,0,0,0,0,0,0,0,0,0,0,0,0,0,0,0,-2,5,-6,20,-7,19,-9,19,-10,18,-11,17,-11,15,-11,14,-11,13,-11,12,-10,12,-9,12,-8,11,-7,11,-6,10,-5,10,-5,9,-5,8,-4,7,-3,6,-2,5,-1,3,-1,1,0,0,0,-2,1,-3,3,-5]",2026-01-09 12:11:09.834,0,0,0,0,0.0,0,0,0,0,0,0,0,0.0,0.0,0.0
CSI_DATA,50247,60:60:1f:fd:0a:5b,-63,14,0,0,0,0,0,0,0,0,0,-93,0,4,0,488917479,0,67,0,128,1,"[67,48,4,0,-4,8,-4,10,-4,11,-4,12,-3,13,-2,15,-1,16,0,17,1,19,2,20,3,20,5,22,5,23,5,22,6,22,6,24,7,23,7,22,6,25,9,27,10,28,9,26,9,23,5,20,-2,19,-1,4,0,0,0,0,0,0,0,0,0,0,0,0,0,0,0,0,0,0,3,-3,12,-9,12,-8,13,-8,13,-7,13,-6,13,-5,12,-4,11,-4,10,-4,10,-4,9,-4,8,-5,7,-5,7,-5,6,-5,5,-5,5,-5,4,-4,3,-4,3,-3,1,-2,1,-1,0,0,-1,1,-1,3,-2,3]",2026-01-09 12:11:09.889,0,0,0,0,0.0,0,0,0,0,0,0,0,0.0,0.0,0.0
CSI_DATA,50257,60:60:1f:fd:0a:5b,-63,8,0,0,0,0,0,0,0,0,0,-93,0,4,0,489006584,0,67,0,128,1,"[67,48,4,0,-4,8,-5,10,-5,11,-6,13,-7,15,-7,16,-8,18,-8,20,-9,22,-10,24,-11,25,-11,26,-11,28,-11,30,-11,31,-11,31,-11,32,-11,32,-11,32,-11,31,-10,31,-10,31,-10,32,-9,32,-9,33,-3,8,0,0,0,0,0,0,0,0,0,0,0,0,0,0,0,0,0,0,4,-5,17,-18,17,-17,18,-16,18,-15,18,-14,19,-13,18,-13,18,-12,17,-11,17,-11,16,-11,14,-12,13,-11,12,-11,12,-11,11,-11,11,-10,10,-9,9,-8,9,-7,7,-6,6,-4,4,0,2,2,1,2,1,3]",2026-01-09 12:11:09.951,0,0,0,0,0.0,0,0,0,0,0,0,0,0.0,0.0,0.0
CSI_DATA,50261,60:60:1f:fd:0a:5b,-63,13,0,0,0,0,0,0,0,0,0,-93,0,4,0,489048029,0,67,0,128,1,"[67,48,4,0,-5,-6,-6,-8,-6,-9,-7,-10,-8,-11,-10,-13,-11,-14,-12,-15,-13,-15,-15,-15,-17,-16,-19,-17,-20,-17,-20,-18,-21,-19,-22,-19,-22,-20,-21,-20,-20,-20,-21,-19,-22,-18,-23,-17,-23,-18,-22,-19,-21,-19,-5,-5,0,0,0,0,0,0,0,0,0,0,0,0,0,0,0,0,0,0,-2,3,-7,15,-8,15,-10,15,-11,15,-11,14,-12,13,-12,12,-12,12,-12,11,-11,11,-10,11,-9,11,-8,10,-7,10,-7,10,-6,10,-6,9,-6,8,-5,8,-5,7,-5,5,-4,4,-4,3,-4,1,-4,0,-4,-1]",2026-01-09 12:11:10.010,0,0,0,0,0.0,0,0,0,0,0,0,0,0.0,0.0,0.0
CSI_DATA,50269,60:60:1f:fd:0a:5b,-63,13,0,0,0,0,0,0,0,0,0,-93,0,4,0,489131896,0,67,0,128,1,"[67,48,4,0,-7,8,-9,9,-10,10,-11,11,-12,13,-13,15,-14,16,-14,18,-15,20,-15,23,-15,25,-15,27,-15,28,-16,29,-17,30,-17,31,-17,31,-17,30,-17,30,-17,30,-15,31,-13,31,-14,31,-16,30,-17,28,-5,6,0,0,0,0,0,0,0,0,0,0,0,0,0,0,0,0,0,0,4,3,18,12,19,12,19,13,18,14,16,15,15,16,15,15,14,15,13,15,12,14,12,12,12,11,12,9,12,9,12,8,12,7,11,7,11,6,10,6,9,6,7,6,6,5,4,5,2,6,1,6,-1,6]",2026-01-09 12:11:10.076,0,0,0,0,0.0,0,0,0,0,0,0,0,0.0,0.0,0.0
CSI_DATA,50274,60:60:1f:fd:0a:5b,-63,13,0,0,0,0,0,0,0,0,0,-93,0,4,0,489175506,0,67,0,128,1,"[67,48,4,0,11,-2,13,-1,14,-1,16,-1,18,-2,19,-3,20,-3,22,-4,23,-5,24,-7,26,-8,27,-10,28,-11,29,-11,30,-12,31,-13,31,-12,30,-11,30,-11,29,-12,29,-13,28,-15,28,-15,28,-13,28,-12,7,-3,0,0,0,0,0,0,0,0,0,0,0,0,0,0,0,0,0,0,-1,-5,-3,-19,-2,-20,-1,-20,0,-20,1,-20,2,-19,3,-18,3,-17,3,-16,2,-15,2,-14,1,-13,0,-13,0,-12,-1,-12,-1,-11,-1,-11,-1,-10,-1,-9,0,-9,1,-8,3,-7,5,-4,5,-1,5,-3,8,-4]",2026-01-09 12:11:10.134,0,0,0,0,0.0,0,0,0,0,0,0,0,0.0,0.0,0.0
CSI_DATA,50278,60:60:1f:fd:0a:5b,-61,13,0,0,0,0,0,0,0,0,0,-94,0,4,0,489217274,0,67,0,128,1,"[67,48,4,0,-9,6,-10,7,-11,7,-12,8,-13,9,-14,11,-15,12,-15,13,-16,15,-16,16,-17,18,-17,20,-17,21,-18,22,-18,23,-18,24,-18,24,-19,23,-19,22,-18,23,-17,23,-16,24,-16,23,-16,22,-17,21,-5,5,0,0,0,0,0,0,0,0,0,0,0,0,0,0,0,0,0,0,3,2,12,10,11,11,10,12,10,12,9,13,8,13,7,13,6,12,6,12,6,11,6,10,6,9,6,8,6,7,6,7,6,6,5,6,5,6,4,5,3,5,2,5,1,5,0,5,-2,5,-3,5,-4,5]",2026-01-09 12:11:10.193,0,0,0,0,0.0,0,0,0,0,0,0,0,0.0,0.0,0.0
CSI_DATA,50281,60:60:1f:fd:0a:5b,-61,13,0,0,0,0,0,0,0,0,0,-94,0,4,0,489247805,0,67,0,128,1,"[67,48,4,0,-13,-2,-14,-3,-15,-4,-17,-4,-18,-4,-20,-4,-22,-4,-23,-4,-25,-2,-26,-1,-28,1,-30,1,-32,2,-32,1,-33,2,-34,2,-34,1,-34,1,-33,0,-32,1,-32,3,-32,4,-32,5,-32,4,-32,2,-9,0,0,0,0,0,0,0,0,0,0,0,0,0,0,0,0,0,0,0,-1,4,0,16,0,18,-1,18,-3,17,-6,17,-6,17,-6,17,-6,16,-6,14,-5,13,-4,13,-3,12,-3,12,-2,11,-2,11,-1,10,-1,10,-2,9,-2,8,-2,8,-3,7,-5,6,-5,4,-5,3,-6,2,-7,1]",2026-01-09 12:11:10.244,0,0,0,0,0.0,0,0,0,0,0,0,0,0.0,0.0,0.0
CSI_DATA,50283,60:60:1f:fd:0a:5b,-62,8,0,0,0,0,0,0,0,0,0,-94,0,4,0,489264299,0,67,0,128,1,"[67,48,4,0,8,-7,9,-8,11,-8,12,-9,13,-9,14,-10,15,-11,16,-12,17,-14,18,-15,19,-15,19,-15,20,-16,21,-18,21,-18,21,-18,21,-19,21,-19,21,-19,20,-19,19,-19,19,-19,18,-20,18,-20,19,-21,4,-6,0,0,0,0,0,0,0,0,0,0,0,0,0,0,0,0,0,0,-4,-2,-14,-8,-14,-9,-14,-10,-13,-10,-13,-10,-13,-10,-12,-10,-11,-10,-10,-9,-10,-9,-10,-8,-10,-7,-9,-7,-9,-6,-9,-6,-9,-6,-9,-5,-8,-6,-7,-6,-6,-6,-5,-6,-3,-6,-1,-6,1,-6,3,-6,3,-6]",2026-01-09 12:11:10.294,0,0,0,0,0.0,0,0,0,0,0,0,0,0.0,0.0,0.0
CSI_DATA,50286,60:60:1f:fd:0a:5b,-61,13,0,0,0,0,0,0,0,0,0,-94,0,4,0,489297324,0,67,0,128,1,"[67,48,4,0,-13,0,-15,0,-16,-1,-17,-1,-19,0,-21,0,-22,1,-24,1,-25,2,-27,4,-28,6,-30,6,-31,7,-32,8,-32,9,-32,10,-33,8,-34,5,-33,5,-33,7,-35,11,-34,14,-33,13,-31,9,-25,6,-6,1,0,0,0,0,0,0,0,0,0,0,0,0,0,0,0,0,0,0,1,4,5,18,4,18,2,19,1,19,0,19,-1,18,-2,17,-3,16,-3,16,-2,15,-1,14,-1,13,0,12,0,11,1,10,1,10,0,9,0,9,0,8,-1,8,-2,7,-3,6,-5,4,-6,3,-7,3,-8,2]",2026-01-09 12:11:10.347,0,0,0,0,0.0,0,0,0,0,0,0,0,0.0,0.0,0.0
CSI_DATA,50298,60:60:1f:fd:0a:5b,-60,9,0,0,0,0,0,0,0,0,0,-94,0,4,0,489468495,0,67,0,128,1,"[67,48,4,0,11,7,12,8,12,9,13,9,15,9,16,10,17,10,18,10,19,9,21,9,23,8,24,8,25,8,26,8,27,7,28,7,28,8,27,8,26,8,26,7,26,6,26,5,26,5,25,6,25,8,6,2,0,0,0,0,0,0,0,0,0,0,0,0,0,0,0,0,0,0,1,-3,5,-12,6,-11,7,-11,8,-10,9,-10,9,-9,9,-8,9,-6,9,-6,8,-5,7,-5,6,-5,6,-5,5,-5,5,-4,5,-4,5,-4,5,-3,5,-3,6,-2,6,-1,6,0,7,1,8,2,8,3,9,4]",2026-01-09 12:11:10.412,0,0,0,0,0.0,0,0,0,0,0,0,0,0.0,0.0,0.0
CSI_DATA,50300,60:60:1f:fd:0a:5b,-60,9,0,0,0,0,0,0,0,0,0,-94,0,4,0,489483394,0,67,0,128,1,"[67,48,4,0,15,-5,16,-6,17,-5,19,-6,20,-8,21,-9,21,-10,21,-10,23,-11,24,-13,25,-15,24,-17,24,-19,25,-19,27,-21,27,-23,26,-22,28,-20,29,-18,26,-19,23,-23,20,-25,21,-23,23,-21,24,-17,6,-4,0,0,0,0,0,0,0,0,0,0,0,0,0,0,0,0,0,0,-1,-4,-4,-14,-3,-14,-3,-14,-2,-14,-1,-14,0,-13,1,-13,2,-12,2,-11,2,-11,2,-10,2,-9,1,-8,1,-8,1,-8,1,-7,1,-7,2,-7,2,-7,3,-6,4,-6,6,-6,7,-5,8,-5,10,-6,11,-5]",2026-01-09 12:11:10.463,0,0,0,0,0.0,0,0,0,0,0,0,0,0.0,0.0,0.0
CSI_DATA,50310,60:60:1f:fd:0a:5b,-60,9,0,0,0,0,0,0,0,0,0,-94,0,4,0,489573661,0,67,0,128,1,"[67,48,4,0,-7,13,-8,14,-9,14,-9,15,-9,17,-9,18,-9,19,-9,20,-8,21,-7,22,-7,24,-7,25,-7,27,-7,27,-6,28,-6,29,-7,29,-8,28,-8,27,-7,26,-6,27,-5,27,-6,26,-6,25,-7,26,-2,6,0,0,0,0,0,0,0,0,0,0,0,0,0,0,0,0,0,0,2,0,10,1,10,2,11,3,10,4,10,5,8,6,7,6,7,6,6,6,5,6,4,5,4,4,3,4,3,3,5,3,5,4,3,4,0,3,0,5,1,6,0,6,-1,6,-2,7,-3,8,-4,9,-5,9]",2026-01-09 12:11:10.517,0,0,0,0,0.0,0,0,0,0,0,0,0,0.0,0.0,0.0
CSI_DATA,50315,60:60:1f:fd:0a:5b,-60,9,0,0,0,0,0,0,0,0,0,-94,0,4,0,489621679,0,67,0,128,1,"[67,48,4,0,-14,-7,-15,-8,-15,-8,-16,-9,-18,-9,-19,-9,-20,-9,-21,-9,-23,-8,-24,-7,-26,-7,-27,-6,-28,-6,-29,-6,-30,-6,-30,-5,-30,-6,-29,-7,-28,-7,-28,-6,-28,-5,-28,-5,-27,-5,-26,-6,-26,-7,-7,-2,0,0,0,0,0,0,0,0,0,0,0,0,0,0,0,0,0,0,0,2,0,10,-1,10,-3,10,-4,10,-5,10,-6,9,-6,8,-6,7,-6,6,-5,5,-5,4,-4,4,-4,3,-3,3,-3,2,-3,2,-3,2,-4,2,-4,1,-5,1,-6,0,-7,-1,-8,-2,-9,-3,-10,-4,-10,-5]",2026-01-09 12:11:10.582,0,0,0,0,0.0,0,0,0,0,0,0,0,0.0,0.0,0.0
CSI_DATA,50318,60:60:1f:fd:0a:5b,-60,9,0,0,0,0,0,0,0,0,0,-94,0,4,0,489653828,0,67,0,128,1,"[67,48,4,0,-1,-18,-1,-19,-1,-20,-2,-21,-4,-22,-5,-23,-5,-24,-6,-25,-8,-26,-10,-27,-11,-27,-12,-27,-15,-28,-15,-28,-15,-28,-16,-28,-17,-28,-17,-27,-14,-28,-13,-30,-14,-28,-17,-24,-17,-24,-14,-28,-12,-32,-3,-8,0,0,0,0,0,0,0,0,0,0,0,0,0,0,0,0,0,0,-3,0,-12,3,-13,2,-13,1,-13,-1,-12,-2,-11,-3,-11,-3,-10,-4,-9,-4,-8,-4,-7,-4,-6,-3,-5,-3,-5,-3,-4,-2,-4,-2,-4,-3,-4,-3,-4,-4,-3,-5,-3,-6,-2,-7,-2,-9,-1,-11,-1,-13,-1,-14]",2026-01-09 12:11:10.641,0,0,0,0,0.0,0,0,0,0,0,0,0,0.0,0.0,0.0
CSI_DATA,50326,60:60:1f:fd:0a:5b,-60,10,0,0,0,0,0,0,0,0,0,-94,0,4,0,489761450,0,67,0,128,1,"[67,48,4,0,2,-21,2,-22,2,-23,2,-23,2,-22,4,-23,4,-25,2,-29,0,-32,-3,-32,-3,-33,1,-36,1,-38,-3,-37,-6,-35,-6,-37,-4,-38,-2,-37,0,-36,2,-35,-1,-35,-3,-35,-2,-35,1,-36,2,-38,0,-10,0,0,0,0,0,0,0,0,0,0,0,0,0,0,0,0,0,0,-3,2,-10,8,-11,8,-11,6,-12,5,-13,3,-12,2,-12,1,-11,0,-10,-1,-9,-1,-8,-2,-7,-1,-5,-1,-4,-1,-4,-2,-5,6,-4,13,-2,4,-2,-5,-3,-5,-2,-7,-2,-8,-1,-10,0,-12,0,-14,1,-15]",2026-01-09 12:11:10.706,0,0,0,0,0.0,0,0,0,0,0,0,0,0.0,0.0,0.0
CSI_DATA,50330,60:60:1f:fd:0a:5b,-60,9,0,0,0,0,0,0,0,0,0,-94,0,4,0,489785990,0,67,0,128,1,"[67,48,4,0,-15,-5,-17,-5,-17,-6,-19,-6,-20,-5,-21,-5,-22,-4,-23,-5,-24,-4,-25,-2,-26,-1,-28,0,-29,1,-29,0,-30,1,-30,1,-30,1,-29,0,-29,0,-28,0,-28,2,-28,3,-28,2,-27,0,-27,-1,-7,-1,0,0,0,0,0,0,0,0,0,0,0,0,0,0,0,0,0,0,0,2,3,11,2,11,0,12,-1,11,-2,11,-3,10,-4,9,-4,8,-5,7,-5,6,-4,5,-4,4,-3,4,-3,3,-2,3,-2,3,-3,2,-3,2,-4,2,-4,1,-5,1,-6,0,-8,-1,-9,-2,-10,-3,-11,-4]",2026-01-09 12:11:10.764,0,0,0,0,0.0,0,0,0,0,0,0,0,0.0,0.0,0.0
CSI_DATA,50334,60:60:1f:fd:0a:5b,-60,14,0,0,0,0,0,0,0,0,0,-94,0,4,0,489833741,0,67,0,128,1,"[67,48,4,0,12,10,13,11,14,12,15,12,16,13,17,13,18,13,19,13,19,12,21,12,22,12,23,12,25,12,25,12,26,13,27,12,26,12,25,13,25,14,25,13,24,11,23,11,24,12,24,13,24,13,6,3,0,0,0,0,0,0,0,0,0,0,0,0,0,0,0,0,0,0,0,-3,0,-11,1,-11,2,-11,3,-11,5,-10,5,-9,6,-8,6,-7,6,-6,6,-5,5,-4,5,-3,4,-3,3,-3,3,-2,3,-2,3,-1,3,-1,4,0,5,1,5,1,6,3,7,4,8,5,9,6,9,7]",2026-01-09 12:11:10.843,0,0,0,0,0.0,0,0,0,0,0,0,0,0.0,0.0,0.0
CSI_DATA,50338,60:60:1f:fd:0a:5b,-60,14,0,0,0,0,0,0,0,0,0,-94,0,4,0,489884245,0,67,0,128,1,"[67,48,4,0,15,6,17,7,17,7,18,7,20,7,21,7,22,7,22,7,24,6,25,5,27,4,28,3,29,3,29,3,30,3,31,3,30,4,29,5,28,5,28,4,27,2,27,1,27,2,27,4,26,5,6,1,0,0,0,0,0,0,0,0,0,0,0,0,0,0,0,0,0,0,-1,-3,-3,-10,-2,-10,0,-10,1,-10,2,-10,3,-9,3,-8,4,-7,4,-6,4,-5,4,-4,3,-4,3,-3,3,-3,2,-2,2,-2,3,-2,3,-1,4,-1,5,0,6,0,7,1,8,2,9,3,11,4,12,4]",2026-01-09 12:11:10.898,0,0,0,0,0.0,0,0,0,0,0,0,0,0.0,0.0,0.0
CSI_DATA,50340,60:60:1f:fd:0a:5b,-60,14,0,0,0,0,0,0,0,0,0,-94,0,4,0,489901715,0,67,0,128,1,"[67,48,4,0,-15,-4,-16,-4,-16,-4,-17,-4,-18,-3,-20,-3,-21,-3,-21,-3,-22,-2,-22,-1,-23,0,-25,2,-26,3,-27,2,-27,2,-28,3,-28,2,-27,1,-25,1,-24,2,-24,2,-25,2,-25,2,-24,2,-24,0,-6,0,0,0,0,0,0,0,0,0,0,0,0,0,0,0,0,0,0,0,0,1,3,7,2,8,1,8,0,9,-1,8,-2,8,-2,7,-3,7,-3,6,-3,5,-3,4,-3,4,-2,3,-2,2,-2,2,-2,2,-3,2,-3,1,-4,1,-5,1,-6,1,-7,0,-8,-2,-9,-5,-11,-4,-12,-3]",2026-01-09 12:11:10.950,0,0,0,0,0.0,0,0,0,0,0,0,0,0.0,0.0,0.0
CSI_DATA,50355,60:60:1f:fd:0a:5b,-60,13,0,0,0,0,0,0,0,0,0,-94,0,4,0,490064482,0,67,0,128,1,"[67,48,4,0,-18,-9,-19,-10,-20,-11,-21,-12,-23,-11,-25,-11,-26,-11,-27,-12,-29,-11,-31,-9,-33,-8,-34,-8,-35,-8,-34,-7,-34,-6,-35,-8,-37,-8,-34,-5,-32,-4,-35,-5,-34,-6,-32,-8,-34,-9,-36,-11,-36,-12,-9,-3,0,0,0,0,0,0,0,0,0,0,0,0,0,0,0,0,0,0,0,3,0,13,-1,13,-3,13,-4,13,-6,12,-7,11,-7,9,-7,8,-7,7,-7,6,-7,5,-6,5,-5,4,-5,3,-4,3,-4,3,-5,2,-5,2,-5,1,-6,0,-7,-1,-8,-2,-10,-3,-11,-4,-12,-5,-13,-6]",2026-01-09 12:11:11.009,0,0,0,0,0.0,0,0,0,0,0,0,0,0.0,0.0,0.0
CSI_DATA,50358,60:60:1f:fd:0a:5b,-60,13,0,0,0,0,0,0,0,0,0,-94,0,4,0,490106950,0,67,0,128,1,"[67,48,4,0,-13,-9,-13,-9,-14,-10,-15,-11,-16,-10,-18,-10,-19,-10,-19,-10,-20,-10,-22,-9,-23,-8,-24,-8,-25,-8,-25,-8,-26,-7,-26,-7,-26,-9,-26,-9,-24,-9,-24,-8,-24,-7,-25,-7,-24,-7,-23,-8,-23,-9,-6,-3,0,0,0,0,0,0,0,0,0,0,0,0,0,0,0,0,0,0,-1,2,-1,8,-2,8,-3,8,-4,8,-5,7,-5,6,-6,5,-6,4,-6,4,-5,3,-5,2,-5,2,-4,1,-3,1,-3,1,-3,1,-4,0,-4,0,-4,-1,-5,-1,-6,-2,-6,-3,-7,-4,-8,-5,-9,-6,-10,-7]",2026-01-09 12:11:11.063,0,0,0,0,0.0,0,0,0,0,0,0,0,0.0,0.0,0.0
CSI_DATA,50364,60:60:1f:fd:0a:5b,-60,14,0,0,0,0,0,0,0,0,0,-94,0,4,0,490177709,0,67,0,128,1,"[67,48,4,0,-16,4,-17,4,-17,5,-18,5,-19,6,-20,7,-21,8,-22,8,-22,10,-22,12,-23,13,-23,14,-24,15,-25,15,-25,15,-25,16,-25,15,-25,14,-25,13,-24,14,-23,15,-22,15,-22,15,-23,13,-23,12,-6,3,0,0,0,0,0,0,0,0,0,0,0,0,0,0,0,0,0,0,2,1,8,4,8,5,7,6,6,7,5,7,4,7,3,7,2,7,1,6,1,6,0,5,0,4,0,3,0,3,0,2,-1,2,-1,2,-2,2,-2,2,-3,2,-4,2,-5,2,-7,2,-9,3,-10,3,-11,3]",2026-01-09 12:11:11.121,0,0,0,0,0.0,0,0,0,0,0,0,0,0.0,0.0,0.0
CSI_DATA,50369,60:60:1f:fd:0a:5b,-60,9,0,0,0,0,0,0,0,0,0,-94,0,4,0,490226933,0,67,0,128,1,"[67,48,4,0,-15,-7,-17,-7,-17,-8,-18,-8,-20,-8,-21,-7,-22,-8,-23,-8,-24,-7,-26,-5,-27,-4,-29,-3,-30,-3,-29,-4,-30,-4,-31,-4,-31,-5,-30,-5,-29,-5,-29,-5,-28,-4,-28,-2,-28,-2,-27,-4,-26,-6,-7,-2,0,0,0,0,0,0,0,0,0,0,0,0,0,0,0,0,0,0,0,2,2,8,1,8,0,9,-1,9,-2,8,-3,8,-3,7,-4,6,-4,5,-4,4,-4,3,-3,3,-3,2,-2,2,-2,1,-2,1,-3,0,-3,0,-3,0,-4,-1,-5,-1,-6,-2,-8,-3,-9,-4,-11,-4,-12,-5]",2026-01-09 12:11:11.188,0,0,0,0,0.0,0,0,0,0,0,0,0,0.0,0.0,0.0
CSI_DATA,50371,60:60:1f:fd:0a:5b,-60,14,0,0,0,0,0,0,0,0,0,-94,0,4,0,490257109,0,67,0,128,1,"[67,48,4,0,11,-12,12,-13,13,-13,13,-14,14,-16,14,-17,15,-18,15,-19,15,-20,14,-22,14,-23,14,-24,14,-25,15,-26,15,-27,15,-27,15,-26,16,-25,16,-24,15,-24,14,-24,13,-25,13,-24,14,-22,15,-22,3,-6,0,0,0,0,0,0,0,0,0,0,0,0,0,0,0,0,0,0,-3,-1,-10,-1,-10,-1,-9,-2,-9,-4,-9,-5,-8,-6,-7,-6,-6,-6,-5,-6,-4,-5,-3,-5,-2,-4,-2,-4,-2,-3,-1,-3,-1,-3,-1,-3,0,-3,0,-4,1,-4,2,-5,3,-5,5,-6,6,-7,7,-8,8,-9]",2026-01-09 12:11:11.246,0,0,0,0,0.0,0,0,0,0,0,0,0,0.0,0.0,0.0
CSI_DATA,50379,60:60:1f:fd:0a:5b,-60,9,0,0,0,0,0,0,0,0,0,-94,0,4,0,490359205,0,67,0,128,1,"[67,48,4,0,-14,-13,-15,-13,-15,-14,-16,-15,-18,-15,-19,-15,-20,-16,-21,-16,-23,-16,-25,-15,-26,-15,-28,-15,-29,-15,-29,-16,-30,-16,-31,-16,-30,-16,-29,-17,-28,-17,-29,-16,-29,-15,-29,-14,-29,-14,-27,-16,-27,-18,-7,-5,0,0,0,0,0,0,0,0,0,0,0,0,0,0,0,0,0,0,0,2,0,10,-1,10,-2,9,-4,9,-5,9,-6,8,-7,7,-7,6,-7,5,-6,4,-6,3,-5,2,-4,2,-3,1,-3,1,-3,1,-4,0,-4,0,-5,-1,-5,-1,-6,-2,-6,-4,-7,-5,-9,-6,-10,-8,-11,-9]",2026-01-09 12:11:11.303,0,0,0,0,0.0,0,0,0,0,0,0,0,0.0,0.0,0.0
CSI_DATA,50383,60:60:1f:fd:0a:5b,-60,14,0,0,0,0,0,0,0,0,0,-94,0,4,0,490387699,0,67,0,128,1,"[67,48,4,0,3,-16,4,-18,4,-19,4,-20,4,-21,3,-22,3,-23,3,-24,1,-25,0,-26,-1,-27,-1,-28,-2,-29,-1,-30,-2,-31,-2,-32,-1,-31,0,-31,0,-30,-1,-29,-2,-29,-3,-29,-2,-28,0,-28,1,-28,0,-8,0,0,0,0,0,0,0,0,0,0,0,0,0,0,0,0,0,0,-2,1,-9,5,-9,4,-10,3,-10,2,-10,1,-9,-1,-9,-2,-8,-2,-7,-3,-6,-3,-5,-3,-5,-3,-4,-2,-3,-2,-3,-2,-3,-2,-3,-3,-2,-3,-2,-4,-1,-5,-1,-6,0,-7,1,-8,1,-10,1,-12,2,-13]",2026-01-09 12:11:11.372,0,0,0,0,0.0,0,0,0,0,0,0,0,0.0,0.0,0.0
CSI_DATA,50393,60:60:1f:fd:0a:5b,-60,14,0,0,0,0,0,0,0,0,0,-94,0,4,0,490483735,0,67,0,128,1,"[67,48,4,0,13,8,14,8,15,9,16,9,18,9,19,9,20,9,21,9,22,9,23,7,25,7,26,7,27,6,28,7,29,6,30,6,29,7,28,8,28,8,28,7,28,6,28,5,27,6,27,7,26,9,6,2,0,0,0,0,0,0,0,0,0,0,0,0,0,0,0,0,0,0,-1,-3,-3,-11,-1,-11,0,-11,1,-11,2,-10,3,-9,3,-8,4,-7,4,-6,4,-6,3,-5,3,-4,2,-4,2,-3,1,-3,2,-3,2,-2,2,-2,3,-1,4,0,5,0,5,1,7,3,8,4,9,5,10,5]",2026-01-09 12:11:11.427,0,0,0,0,0.0,0,0,0,0,0,0,0,0.0,0.0,0.0
CSI_DATA,50397,60:60:1f:fd:0a:5b,-60,9,0,0,0,0,0,0,0,0,0,-94,0,4,0,490528910,0,67,0,128,1,"[67,48,4,0,-19,8,-21,9,-21,9,-22,10,-23,12,-24,13,-25,14,-25,14,-26,16,-26,18,-26,20,-27,22,-27,23,-27,24,-26,25,-25,27,-27,27,-28,26,-28,24,-27,22,-27,22,-26,22,-26,20,-25,20,-25,23,-7,6,0,0,0,0,0,0,0,0,0,0,0,0,0,0,0,0,0,0,3,1,11,5,10,6,9,7,8,8,7,9,5,9,4,9,3,9,2,8,1,8,1,7,1,5,0,4,0,3,0,3,0,3,-1,3,-2,3,-3,3,-4,4,-5,4,-7,4,-6,0,-3,-1,-4,4,-10,7]",2026-01-09 12:11:11.492,0,0,0,0,0.0,0,0,0,0,0,0,0,0.0,0.0,0.0
CSI_DATA,50400,60:60:1f:fd:0a:5b,-60,9,0,0,0,0,0,0,0,0,0,-94,0,4,0,490570198,0,67,0,128,1,"[67,48,4,0,15,9,16,10,16,11,17,11,20,11,21,11,22,11,23,11,24,11,26,10,28,11,30,11,30,10,29,10,30,10,30,11,30,13,29,13,28,12,29,13,32,15,30,13,28,11,29,12,29,12,7,2,0,0,0,0,0,0,0,0,0,0,0,0,0,0,0,0,0,0,-1,-3,-3,-11,-2,-11,-1,-11,0,-11,1,-11,2,-10,3,-9,4,-8,4,-7,3,-6,3,-5,3,-4,2,-3,2,-2,2,-2,2,-2,2,-1,2,-1,3,0,4,0,5,1,6,2,6,3,6,4,8,5,11,7]",2026-01-09 12:11:11.543,0,0,0,0,0.0,0,0,0,0,0,0,0,0.0,0.0,0.0
CSI_DATA,50407,60:60:1f:fd:0a:5b,-60,10,0,0,0,0,0,0,0,0,0,-94,0,4,0,490659339,0,67,0,128,1,"[67,48,4,0,13,-2,14,-2,15,-1,16,-1,17,-1,18,-1,19,-1,19,0,19,-1,21,-2,22,-4,21,-4,22,-3,22,-3,23,-4,28,-3,27,-2,21,-1,19,1,19,4,24,7,24,1,19,-1,20,4,18,3,3,0,0,0,0,0,0,0,0,0,0,0,0,0,0,0,0,0,0,0,-3,-1,-9,-3,-9,-3,-8,-4,-8,-7,-7,-8,-5,-8,-4,-8,-3,-9,-2,-8,-2,-7,-1,-7,-1,-6,0,-6,0,-5,0,-5,0,-4,0,-4,0,-5,1,-5,2,-5,3,-4,4,-6,6,-7,8,-7,8,-4,9,-3]",2026-01-09 12:11:11.603,0,0,0,0,0.0,0,0,0,0,0,0,0,0.0,0.0,0.0
CSI_DATA,50411,60:60:1f:fd:0a:5b,-61,14,0,0,0,0,0,0,0,0,0,-94,0,4,0,490693929,0,67,0,128,1,"[67,48,4,0,-6,-19,-7,-21,-7,-22,-8,-23,-9,-24,-11,-25,-11,-26,-11,-27,-12,-27,-15,-27,-17,-28,-19,-29,-20,-29,-20,-30,-21,-30,-22,-30,-21,-31,-19,-30,-18,-29,-20,-28,-22,-26,-23,-25,-21,-26,-18,-28,-18,-29,-5,-8,0,0,0,0,0,0,0,0,0,0,0,0,0,0,0,0,0,0,-3,1,-10,7,-11,6,-12,6,-13,5,-13,3,-13,1,-13,0,-12,-1,-11,-2,-10,-2,-9,-2,-8,-2,-7,-2,-6,-2,-5,-2,-5,-2,-5,-3,-5,-3,-5,-4,-5,-5,-5,-6,-5,-8,-5,-10,-5,-11,-5,-13,-5,-14]",2026-01-09 12:11:11.661,0,0,0,0,0.0,0,0,0,0,0,0,0,0.0,0.0,0.0
CSI_DATA,50417,60:60:1f:fd:0a:5b,-60,14,0,0,0,0,0,0,0,0,0,-94,0,4,0,490771971,0,67,0,128,1,"[67,48,4,0,-11,-13,-11,-14,-11,-15,-12,-14,-14,-14,-15,-15,-17,-16,-18,-15,-19,-16,-21,-17,-22,-17,-22,-15,-24,-15,-24,-16,-24,-16,-25,-18,-26,-20,-26,-18,-24,-15,-20,-13,-20,-13,-21,-11,-21,-7,-23,-9,-22,-11,-5,-3,0,0,0,0,0,0,0,0,0,0,0,0,0,0,0,0,0,0,-2,2,-6,7,-7,7,-8,7,-9,6,-10,5,-10,4,-10,3,-10,2,-9,1,-9,1,-8,0,-7,-1,-6,-1,-5,-1,-5,0,-5,-1,-6,-1,-6,-1,-6,-2,-5,-3,-5,-4,-6,-5,-7,-6,-8,-7,-8,-8,-8,-9]",2026-01-09 12:11:11.716,0,0,0,0,0.0,0,0,0,0,0,0,0,0.0,0.0,0.0
CSI_DATA,50423,60:60:1f:fd:0a:5b,-60,14,0,0,0,0,0,0,0,0,0,-94,0,4,0,490824824,0,67,0,128,1,"[67,48,4,0,9,-14,9,-15,10,-15,11,-16,11,-18,11,-19,11,-20,12,-21,11,-22,10,-24,10,-25,9,-25,9,-26,10,-27,11,-28,10,-28,11,-27,12,-27,12,-27,11,-27,10,-27,9,-27,9,-26,10,-24,11,-25,2,-7,0,0,0,0,0,0,0,0,0,0,0,0,0,0,0,0,0,0,-3,-1,-10,-3,-10,-4,-10,-5,-9,-6,-9,-7,-8,-8,-7,-8,-6,-9,-5,-8,-4,-8,-3,-8,-2,-7,-2,-6,-2,-6,-2,-6,-1,-5,-1,-5,-1,-6,0,-6,0,-7,1,-8,1,-8,2,-9,4,-10,5,-11,6,-12]",2026-01-09 12:11:11.783,0,0,0,0,0.0,0,0,0,0,0,0,0,0.0,0.0,0.0
CSI_DATA,50426,60:60:1f:fd:0a:5b,-60,14,0,0,0,0,0,0,0,0,0,-94,0,4,0,490850367,0,67,0,128,1,"[67,48,4,0,15,-13,16,-14,17,-15,18,-16,19,-18,19,-19,19,-21,18,-22,19,-24,19,-26,19,-27,19,-30,18,-31,18,-31,18,-32,17,-34,18,-34,18,-33,18,-32,17,-30,15,-28,13,-30,14,-31,18,-29,20,-28,5,-8,0,0,0,0,0,0,0,0,0,0,0,0,0,0,0,0,0,0,-3,-2,-10,-7,-10,-8,-9,-10,-8,-11,-7,-12,-6,-12,-4,-12,-3,-12,-2,-11,-1,-11,0,-10,0,-8,0,-7,0,-7,0,-6,0,-6,1,-6,1,-6,2,-7,3,-7,4,-8,6,-8,7,-9,8,-10,10,-10,12,-11]",2026-01-09 12:11:11.840,0,0,0,0,0.0,0,0,0,0,0,0,0,0.0,0.0,0.0
CSI_DATA,50437,60:60:1f:fd:0a:5b,-61,10,0,0,0,0,0,0,0,0,0,-94,0,4,0,490953073,0,67,0,128,1,"[67,48,4,0,7,-14,7,-15,8,-15,8,-16,8,-18,8,-19,8,-20,8,-21,7,-22,6,-24,6,-25,6,-26,5,-27,5,-27,5,-28,5,-29,6,-29,7,-28,7,-27,6,-27,5,-27,4,-27,4,-26,5,-26,6,-25,1,-7,0,0,0,0,0,0,0,0,0,0,0,0,0,0,0,0,0,0,-3,0,-11,0,-11,-1,-11,-2,-11,-3,-11,-4,-10,-6,-9,-6,-8,-7,-7,-7,-6,-7,-5,-6,-4,-6,-3,-5,-3,-5,-3,-4,-3,-4,-2,-4,-2,-4,-1,-5,-1,-5,0,-6,1,-7,2,-8,3,-9,4,-10,5,-11]",2026-01-09 12:11:11.897,0,0,0,0,0.0,0,0,0,0,0,0,0,0.0,0.0,0.0
CSI_DATA,50441,60:60:1f:fd:0a:5b,-61,10,0,0,0,0,0,0,0,0,0,-94,0,4,0,491001965,0,67,0,128,1,"[67,48,4,0,8,14,9,15,9,16,10,17,11,18,13,18,14,19,15,20,16,20,18,19,19,19,21,20,22,20,22,21,23,21,24,21,23,22,21,22,21,21,20,20,21,20,22,20,21,20,20,20,20,20,5,5,0,0,0,0,0,0,0,0,0,0,0,0,0,0,0,0,0,0,1,-3,5,-10,6,-11,7,-10,8,-9,9,-8,9,-7,9,-6,9,-4,9,-3,8,-2,7,-2,6,-2,5,-1,4,-1,4,-1,4,-1,5,-1,4,-1,4,1,4,2,4,3,5,4,5,6,6,8,7,9,7,10]",2026-01-09 12:11:11.966,0,0,0,0,0.0,0,0,0,0,0,0,0,0.0,0.0,0.0
CSI_DATA,50448,60:60:1f:fd:0a:5b,-62,10,0,0,0,0,0,0,0,0,0,-93,0,4,0,491079874,0,67,0,128,1,"[67,48,4,0,14,-2,15,-3,17,-3,18,-3,19,-4,19,-5,20,-6,21,-6,21,-7,22,-9,22,-10,23,-10,24,-12,24,-12,24,-13,25,-13,27,-12,27,-11,24,-10,21,-11,22,-11,23,-12,22,-12,22,-9,20,-8,4,-2,0,0,0,0,0,0,0,0,0,0,0,0,0,0,0,0,0,0,-2,-3,-8,-9,-8,-10,-7,-10,-6,-10,-5,-11,-4,-11,-3,-10,-2,-10,-1,-9,-1,-8,0,-8,0,-7,0,-6,0,-5,-1,-5,-1,-4,0,-4,0,-4,1,-4,2,-4,3,-3,5,-3,6,-3,8,-2,9,-3,10,-2]",2026-01-09 12:11:12.024,0,0,0,0,0.0,0,0,0,0,0,0,0,0.0,0.0,0.0
CSI_DATA,50452,60:60:1f:fd:0a:5b,-62,10,0,0,0,0,0,0,0,0,0,-93,0,4,0,491122902,0,67,0,128,1,"[67,48,4,0,0,13,1,14,1,15,1,16,2,18,2,19,3,20,3,21,4,21,7,22,8,23,9,24,9,25,9,25,10,26,11,27,10,27,9,26,9,26,9,24,9,23,10,23,11,23,9,25,8,25,2,6,0,0,0,0,0,0,0,0,0,0,0,0,0,0,0,0,0,0,1,-3,7,-10,8,-9,9,-9,10,-8,10,-7,10,-5,10,-4,10,-3,9,-2,8,-2,7,-2,5,-2,5,-2,4,-2,3,-2,3,-2,3,-2,3,-1,2,0,2,1,2,2,2,3,1,5,1,6,1,8,1,8]",2026-01-09 12:11:12.083,0,0,0,0,0.0,0,0,0,0,0,0,0,0.0,0.0,0.0
CSI_DATA,50456,60:60:1f:fd:0a:5b,-62,9,0,0,0,0,0,0,0,0,0,-93,0,4,0,491159198,0,67,0,128,1,"[67,48,4,0,14,9,15,9,16,10,17,10,19,10,21,10,23,10,23,10,24,10,25,8,27,6,29,6,29,7,30,8,31,8,31,7,31,7,31,8,32,10,31,9,30,7,29,5,28,5,28,8,28,10,6,2,0,0,0,0,0,0,0,0,0,0,0,0,0,0,0,0,0,0,-2,-3,-6,-11,-5,-12,-4,-13,-3,-13,-2,-13,0,-12,0,-11,1,-10,2,-9,2,-8,1,-7,1,-6,0,-5,0,-4,0,-3,-1,-3,0,-2,0,-2,1,-1,2,-1,3,0,4,1,5,2,7,4,9,5,10,6]",2026-01-09 12:11:12.142,0,0,0,0,0.0,0,0,0,0,0,0,0,0.0,0.0,0.0
CSI_DATA,50465,60:60:1f:fd:0a:5b,-61,10,0,0,0,0,0,0,0,0,0,-93,0,4,0,491254243,0,67,0,128,1,"[67,48,4,0,15,-1,16,-2,17,-2,18,-4,19,-6,19,-7,19,-9,20,-10,20,-11,20,-14,21,-15,21,-18,21,-19,21,-19,21,-19,20,-20,18,-21,19,-21,20,-21,19,-21,16,-22,14,-23,13,-23,15,-22,16,-21,4,-5,0,0,0,0,0,0,0,0,0,0,0,0,0,0,0,0,0,0,-2,-2,-7,-8,-6,-9,-5,-9,-5,-9,-4,-9,-3,-9,-2,-8,-1,-7,-1,-6,-1,-5,-1,-4,-1,-3,-1,-2,-1,-1,-1,0,-1,0,-1,0,0,0,1,1,2,1,4,0,4,0,4,-6,10,-14,14,-10,13,-2]",2026-01-09 12:11:12.198,0,0,0,0,0.0,0,0,0,0,0,0,0,0.0,0.0,0.0
CSI_DATA,50469,60:60:1f:fd:0a:5b,-61,9,0,0,0,0,0,0,0,0,0,-93,0,4,0,491308564,0,67,0,128,1,"[67,48,4,0,-4,16,-4,17,-5,18,-4,19,-3,21,-2,22,-2,23,-2,24,0,25,1,27,2,28,2,29,3,30,3,30,3,31,3,32,2,32,1,31,1,30,1,30,2,30,2,29,2,29,0,29,-2,28,-1,7,0,0,0,0,0,0,0,0,0,0,0,0,0,0,0,0,0,0,1,-3,4,-11,5,-11,5,-10,6,-9,7,-8,7,-6,7,-5,6,-4,5,-3,4,-3,3,-2,1,-2,1,-2,0,-2,-1,-2,-1,-2,-2,-1,-2,0,-2,1,-2,2,-2,3,-3,5,-3,6,-3,8,-4,10,-4,11]",2026-01-09 12:11:12.262,0,0,0,0,0.0,0,0,0,0,0,0,0,0.0,0.0,0.0
CSI_DATA,50476,60:60:1f:fd:0a:5b,-61,10,0,0,0,0,0,0,0,0,0,-93,0,4,0,491384573,0,67,0,128,1,"[67,48,4,0,-18,0,-19,0,-21,-3,-21,-7,-16,-5,-21,-4,-27,-2,-26,2,-26,5,-28,8,-29,7,-30,8,-31,9,-31,7,-32,7,-32,8,-31,8,-31,7,-33,3,-36,0,-32,4,-27,4,-23,-2,-25,-3,-28,-1,-7,-1,0,0,0,0,0,0,0,0,0,0,0,0,0,0,0,0,0,0,2,-1,11,-2,10,0,10,1,9,2,8,3,7,4,6,4,5,4,4,3,3,2,2,1,2,0,1,0,1,-1,1,-2,0,-2,0,-2,-1,-2,-2,-2,-3,-2,-5,-1,-6,-1,-8,-2,-11,-2,-13,0,-13,1]",2026-01-09 12:11:12.328,0,0,0,0,0.0,0,0,0,0,0,0,0,0.0,0.0,0.0
CSI_DATA,50480,60:60:1f:fd:0a:5b,-61,14,0,0,0,0,0,0,0,0,0,-93,0,4,0,491424478,0,67,0,128,1,"[67,48,4,0,-18,0,-19,1,-20,1,-21,2,-23,4,-23,4,-24,6,-26,7,-25,8,-25,11,-27,14,-27,14,-27,15,-27,15,-27,17,-28,18,-30,17,-30,14,-30,11,-29,16,-30,18,-29,14,-27,12,-30,10,-32,8,-8,2,0,0,0,0,0,0,0,0,0,0,0,0,0,0,0,0,0,0,2,0,9,3,9,4,8,4,7,5,6,6,5,6,4,5,3,5,2,4,1,3,1,2,1,1,0,0,0,-1,0,-1,0,-2,0,-2,-1,-2,-2,-2,-3,-2,-5,-2,-6,-2,-8,-2,-10,-2,-12,-1,-13,-1]",2026-01-09 12:11:12.388,0,0,0,0,0.0,0,0,0,0,0,0,0,0.0,0.0,0.0
CSI_DATA,50482,60:60:1f:fd:0a:5b,-61,14,0,0,0,0,0,0,0,0,0,-93,0,4,0,491448775,0,67,0,128,1,"[67,48,4,0,-17,8,-18,9,-19,10,-20,11,-20,12,-21,14,-22,14,-23,15,-23,17,-24,19,-24,20,-24,22,-25,23,-26,23,-26,23,-27,23,-27,21,-27,19,-28,20,-28,20,-26,20,-25,22,-27,21,-30,19,-30,19,-8,5,0,0,0,0,0,0,0,0,0,0,0,0,0,0,0,0,0,0,2,-2,10,-6,11,-5,11,-4,10,-3,10,-2,9,0,8,1,7,1,6,1,4,1,3,0,2,-1,1,-1,1,-2,0,-2,-1,-2,-1,-2,-2,-2,-3,-1,-4,0,-5,1,-6,1,-8,2,-10,3,-11,4,-12,5]",2026-01-09 12:11:12.440,0,0,0,0,0.0,0,0,0,0,0,0,0,0.0,0.0,0.0
CSI_DATA,50493,60:60:1f:fd:0a:5b,-61,10,0,0,0,0,0,0,0,0,0,-93,0,4,0,491551413,0,67,0,128,1,"[67,48,4,0,14,12,16,12,17,13,18,13,20,13,22,13,23,12,24,12,26,11,27,10,29,9,31,9,32,9,32,10,33,10,35,10,34,11,33,12,32,12,31,11,32,11,32,10,30,10,29,13,29,17,7,4,0,0,0,0,0,0,0,0,0,0,0,0,0,0,0,0,0,0,-3,-2,-9,-7,-8,-8,-7,-9,-6,-9,-5,-9,-4,-8,-3,-8,-2,-7,-2,-5,-2,-4,-2,-3,-2,-2,-3,0,-3,0,-3,1,-3,2,-3,2,-2,2,-1,3,0,4,1,5,3,6,4,7,6,8,8,9,9,10]",2026-01-09 12:11:12.495,0,0,0,0,0.0,0,0,0,0,0,0,0,0.0,0.0,0.0
CSI_DATA,50498,60:60:1f:fd:0a:5b,-62,10,0,0,0,0,0,0,0,0,0,-93,0,4,0,491599636,0,67,0,128,1,"[67,48,4,0,-18,-9,-19,-9,-20,-10,-21,-10,-23,-9,-24,-9,-26,-8,-27,-8,-28,-8,-30,-6,-32,-5,-34,-4,-36,-5,-36,-6,-36,-5,-37,-5,-36,-8,-35,-10,-36,-11,-36,-10,-35,-8,-34,-7,-34,-7,-33,-10,-33,-12,-9,-4,0,0,0,0,0,0,0,0,0,0,0,0,0,0,0,0,0,0,2,0,10,2,10,3,9,4,9,5,7,5,6,5,5,5,4,4,3,3,3,2,2,1,2,0,2,-1,2,-2,2,-2,2,-3,1,-3,0,-4,-1,-4,-2,-4,-3,-5,-5,-5,-7,-6,-9,-6,-11,-6,-12,-7]",2026-01-09 12:11:12.565,0,0,0,0,0.0,0,0,0,0,0,0,0,0.0,0.0,0.0
CSI_DATA,50505,60:60:1f:fd:0a:5b,-61,10,0,0,0,0,0,0,0,0,0,-93,0,4,0,491681771,0,67,0,128,1,"[67,48,4,0,12,-10,12,-11,13,-11,13,-13,13,-14,13,-16,13,-17,13,-18,13,-18,12,-20,12,-24,12,-26,12,-26,12,-24,13,-23,14,-26,14,-30,12,-30,10,-26,9,-27,10,-30,14,-28,18,-27,20,-28,24,-29,6,-8,0,0,0,0,0,0,0,0,0,0,0,0,0,0,0,0,0,0,-2,1,-9,4,-9,3,-9,3,-9,2,-9,1,-8,0,-7,0,-6,-1,-5,-1,-4,-1,-3,0,-2,0,-1,1,-1,1,-1,1,0,2,0,1,1,1,1,0,2,0,3,-1,4,-2,5,-3,7,-4,9,-6,10,-7]",2026-01-09 12:11:12.626,0,0,0,0,0.0,0,0,0,0,0,0,0,0.0,0.0,0.0
CSI_DATA,50509,60:60:1f:fd:0a:5b,-61,15,0,0,0,0,0,0,0,0,0,-93,0,4,0,491720283,0,67,0,128,1,"[67,48,4,0,4,-17,3,-18,4,-19,3,-21,2,-22,2,-23,1,-25,1,-25,0,-26,-1,-28,-2,-29,-3,-30,-4,-31,-3,-32,-3,-33,-3,-34,-2,-33,-1,-33,0,-32,-1,-31,-1,-31,-2,-31,-1,-30,1,-30,3,-30,0,-8,0,0,0,0,0,0,0,0,0,0,0,0,0,0,0,0,0,0,-1,2,-2,9,-3,9,-4,9,-5,8,-5,7,-5,6,-5,5,-5,4,-4,3,-3,2,-2,2,-1,2,0,1,0,1,1,1,2,1,2,0,2,0,2,-2,3,-3,3,-4,3,-6,3,-7,3,-9,3,-11,4,-12]",2026-01-09 12:11:12.683,0,0,0,0,0.0,0,0,0,0,0,0,0,0.0,0.0,0.0
CSI_DATA,50513,60:60:1f:fd:0a:5b,-61,10,0,0,0,0,0,0,0,0,0,-93,0,4,0,491756655,0,67,0,128,1,"[67,48,4,0,-16,1,-17,2,-18,2,-19,2,-20,3,-21,4,-22,5,-22,5,-23,7,-24,8,-24,10,-25,11,-26,11,-26,11,-27,12,-28,12,-28,11,-28,10,-28,8,-28,9,-29,10,-28,11,-26,9,-26,6,-30,5,-9,1,0,0,0,0,0,0,0,0,0,0,0,0,0,0,0,0,0,0,2,-1,8,-3,8,-3,8,-2,8,-1,8,0,7,1,5,1,4,1,4,1,3,0,2,0,1,-1,1,-1,1,-2,0,-3,0,-3,-1,-3,-2,-3,-2,-2,-3,-2,-5,-2,-6,-2,-7,-3,-8,-3,-10,-1,-11,0]",2026-01-09 12:11:12.741,0,0,0,0,0.0,0,0,0,0,0,0,0,0.0,0.0,0.0
CSI_DATA,50524,60:60:1f:fd:0a:5b,-61,14,0,0,0,0,0,0,0,0,0,-93,0,4,0,491852061,0,67,0,128,1,"[67,48,4,0,15,11,16,12,17,12,18,12,20,12,22,12,23,13,24,13,26,11,28,10,29,9,31,10,32,10,32,10,33,11,35,12,34,14,31,15,29,15,30,15,30,14,32,12,33,13,29,15,26,15,6,3,0,0,0,0,0,0,0,0,0,0,0,0,0,0,0,0,0,0,-3,-1,-12,-3,-12,-5,-11,-6,-10,-7,-9,-7,-7,-7,-6,-7,-5,-6,-4,-5,-3,-4,-3,-2,-3,-1,-3,0,-3,1,-3,2,-3,2,-3,3,-2,3,-1,3,0,4,2,5,3,6,5,7,6,8,9,9,10,10]",2026-01-09 12:11:12.796,0,0,0,0,0.0,0,0,0,0,0,0,0,0.0,0.0,0.0
CSI_DATA,50530,60:60:1f:fd:0a:5b,-61,14,0,0,0,0,0,0,0,0,0,-93,0,4,0,491903264,0,67,0,128,1,"[67,48,4,0,13,-11,14,-12,15,-13,15,-14,16,-16,16,-17,16,-18,16,-19,16,-21,16,-23,15,-25,15,-26,15,-27,17,-27,17,-28,17,-29,18,-28,19,-26,21,-25,22,-25,19,-26,19,-25,21,-23,21,-23,20,-23,5,-6,0,0,0,0,0,0,0,0,0,0,0,0,0,0,0,0,0,0,-2,2,-6,10,-6,10,-7,9,-8,8,-8,7,-8,6,-7,5,-7,4,-6,3,-5,3,-3,3,-2,3,-1,3,0,3,1,4,1,3,2,3,2,2,3,2,4,1,5,-1,6,-1,6,-4,7,-9,9,-9,10,-8]",2026-01-09 12:11:12.863,0,0,0,0,0.0,0,0,0,0,0,0,0,0.0,0.0,0.0
CSI_DATA,50537,60:60:1f:fd:0a:5b,-61,14,0,0,0,0,0,0,0,0,0,-93,0,4,0,491970309,0,67,0,128,1,"[67,48,4,0,-17,1,-18,2,-19,2,-20,3,-21,4,-21,5,-22,6,-23,7,-23,8,-24,9,-25,10,-26,12,-27,12,-27,12,-28,12,-28,13,-29,11,-29,10,-28,9,-28,9,-28,9,-28,9,-27,8,-27,5,-27,4,-7,1,0,0,0,0,0,0,0,0,0,0,0,0,0,0,0,0,0,0,1,-2,6,-8,7,-7,7,-6,7,-6,7,-5,7,-4,6,-3,5,-2,4,-2,3,-3,2,-3,1,-4,0,-4,0,-5,-1,-5,-2,-5,-2,-5,-3,-5,-4,-5,-5,-4,-6,-3,-7,-3,-9,-3,-11,-2,-12,-1,-13,-1]",2026-01-09 12:11:12.914,0,0,0,0,0.0,0,0,0,0,0,0,0,0.0,0.0,0.0
CSI_DATA,50543,60:60:1f:fd:0a:5b,-61,10,0,0,0,0,0,0,0,0,0,-93,0,4,0,492024576,0,67,0,128,1,"[67,48,4,0,-9,13,-9,15,-9,16,-9,17,-8,18,-8,20,-7,21,-7,21,-6,22,-5,24,-5,25,-5,27,-4,28,-5,28,-5,29,-5,30,-6,29,-7,28,-8,28,-8,28,-7,28,-7,28,-8,27,-10,26,-12,26,-3,6,0,0,0,0,0,0,0,0,0,0,0,0,0,0,0,0,0,0,-1,-3,-2,-11,-1,-11,0,-11,0,-11,1,-10,2,-9,2,-8,2,-7,1,-6,0,-5,-1,-5,-1,-4,-2,-4,-3,-4,-4,-4,-4,-3,-4,-3,-4,-2,-5,-1,-5,0,-6,2,-6,3,-6,5,-7,7,-7,8,-8,9]",2026-01-09 12:11:12.988,0,0,0,0,0.0,0,0,0,0,0,0,0,0.0,0.0,0.0
CSI_DATA,50546,60:60:1f:fd:0a:5b,-61,14,0,0,0,0,0,0,0,0,0,-93,0,4,0,492052578,0,67,0,128,1,"[67,48,4,0,12,-11,13,-12,14,-12,14,-13,14,-15,14,-16,15,-17,14,-18,13,-20,13,-22,13,-23,13,-24,14,-25,15,-25,15,-26,15,-26,17,-25,18,-24,18,-23,18,-23,17,-23,16,-24,17,-24,19,-21,20,-20,5,-5,0,0,0,0,0,0,0,0,0,0,0,0,0,0,0,0,0,0,-1,2,-2,10,-3,9,-4,9,-4,8,-5,8,-5,6,-5,5,-5,4,-4,4,-3,3,-2,3,-1,3,0,3,1,3,2,3,2,3,2,2,3,2,4,1,5,0,6,-1,7,-2,8,-4,9,-5,10,-6,10,-7]",2026-01-09 12:11:13.043,0,0,0,0,0.0,0,0,0,0,0,0,0,0.0,0.0,0.0
CSI_DATA,50556,60:60:1f:fd:0a:5b,-62,10,0,0,0,0,0,0,0,0,0,-93,0,4,0,492157512,0,67,0,128,1,"[67,48,4,0,15,8,16,8,17,9,18,9,19,9,20,8,21,8,21,8,22,6,24,5,26,5,27,5,27,5,28,5,29,5,30,5,29,6,28,7,28,7,27,7,26,7,26,6,26,7,25,9,26,10,6,2,0,0,0,0,0,0,0,0,0,0,0,0,0,0,0,0,0,0,-3,-1,-11,-2,-10,-3,-10,-5,-9,-6,-8,-6,-7,-7,-6,-7,-4,-6,-3,-6,-2,-5,-2,-4,-1,-2,-1,-2,-1,-1,-1,0,0,1,0,1,1,2,2,2,3,2,4,3,6,4,7,4,9,5,11,6,12,7]",2026-01-09 12:11:13.101,0,0,0,0,0.0,0,0,0,0,0,0,0,0.0,0.0,0.0
CSI_DATA,50559,60:60:1f:fd:0a:5b,-63,10,0,0,0,0,0,0,0,0,0,-93,0,4,0,492181645,0,67,0,128,1,"[67,48,4,0,16,0,18,0,19,0,20,0,21,-1,22,-2,23,-3,23,-3,24,-5,25,-7,25,-8,26,-8,27,-9,28,-9,28,-10,29,-10,29,-10,28,-9,28,-8,27,-8,27,-10,27,-10,27,-10,27,-7,27,-6,7,-2,0,0,0,0,0,0,0,0,0,0,0,0,0,0,0,0,0,0,-4,0,-13,1,-13,0,-13,-1,-12,-2,-12,-4,-11,-5,-11,-6,-9,-6,-8,-6,-7,-5,-6,-5,-5,-4,-4,-3,-4,-2,-3,-1,-3,-1,-2,-1,-1,-1,0,-1,2,-1,3,0,5,0,7,0,9,0,11,0,12,0]",2026-01-09 12:11:13.160,0,0,0,0,0.0,0,0,0,0,0,0,0,0.0,0.0,0.0
CSI_DATA,50568,60:60:1f:fd:0a:5b,-62,9,0,0,0,0,0,0,0,0,0,-93,0,4,0,492274661,0,67,0,128,1,"[67,48,4,0,-18,-3,-18,-3,-19,-3,-19,-3,-20,-2,-21,-1,-22,0,-22,0,-22,2,-23,3,-24,5,-25,6,-26,7,-26,7,-27,7,-27,8,-27,8,-27,7,-26,7,-27,8,-26,9,-25,9,-26,8,-27,6,-28,5,-7,1,0,0,0,0,0,0,0,0,0,0,0,0,0,0,0,0,0,0,2,0,8,3,8,4,7,5,6,6,5,7,3,7,2,7,0,7,0,6,-1,6,-2,4,-3,3,-3,2,-3,2,-3,1,-3,0,-4,0,-4,0,-5,0,-6,0,-7,-1,-9,-1,-10,-1,-12,-2,-13,-2,-14,-2]",2026-01-09 12:11:13.218,0,0,0,0,0.0,0,0,0,0,0,0,0,0.0,0.0,0.0
CSI_DATA,50574,60:60:1f:fd:0a:5b,-61,9,0,0,0,0,0,0,0,0,0,-93,0,4,0,492321608,0,67,0,128,1,"[67,48,4,0,-11,-14,-12,-15,-11,-15,-12,-15,-13,-15,-15,-16,-15,-16,-16,-15,-17,-15,-19,-15,-21,-14,-22,-14,-23,-14,-24,-14,-24,-14,-25,-14,-24,-15,-24,-15,-23,-15,-23,-14,-24,-14,-24,-13,-23,-14,-22,-16,-21,-18,-6,-5,0,0,0,0,0,0,0,0,0,0,0,0,0,0,0,0,0,0,1,2,5,8,4,8,3,9,1,9,0,9,-1,9,-2,8,-3,7,-4,6,-4,4,-4,3,-4,2,-3,1,-3,0,-2,0,-2,-1,-2,-2,-3,-2,-3,-3,-4,-4,-5,-5,-5,-5,-6,-5,-8,-8,-12,-10,-11,-10]",2026-01-09 12:11:13.283,0,0,0,0,0.0,0,0,0,0,0,0,0,0.0,0.0,0.0
CSI_DATA,50578,60:60:1f:fd:0a:5b,-62,9,0,0,0,0,0,0,0,0,0,-93,0,4,0,492354452,0,67,0,128,1,"[67,48,4,0,8,18,9,19,9,20,10,20,12,21,13,21,14,21,15,21,17,21,19,21,21,21,22,21,24,21,24,21,25,22,27,22,26,22,24,23,24,23,24,22,25,21,25,21,24,21,23,22,22,24,5,6,0,0,0,0,0,0,0,0,0,0,0,0,0,0,0,0,0,0,-2,-4,-7,-13,-5,-14,-4,-14,-2,-14,0,-14,2,-13,3,-11,4,-10,4,-9,4,-7,4,-6,3,-4,2,-3,2,-2,1,-2,1,-1,1,0,1,1,2,2,2,4,3,5,4,7,4,9,5,11,6,13,7,14]",2026-01-09 12:11:13.339,0,0,0,0,0.0,0,0,0,0,0,0,0,0.0,0.0,0.0
CSI_DATA,50589,60:60:1f:fd:0a:5b,-61,9,0,0,0,0,0,0,0,0,0,-93,0,4,0,492455213,0,67,0,128,1,"[67,48,4,0,15,-10,15,-11,16,-11,16,-11,17,-13,17,-14,17,-15,18,-16,17,-17,17,-19,17,-20,17,-21,17,-22,18,-22,18,-23,18,-24,19,-23,20,-21,20,-20,19,-20,19,-21,18,-21,19,-20,20,-18,20,-17,5,-4,0,0,0,0,0,0,0,0,0,0,0,0,0,0,0,0,0,0,-1,2,-4,9,-4,9,-5,8,-6,7,-6,6,-6,5,-6,4,-6,3,-5,2,-4,2,-3,2,-2,2,-1,2,0,2,0,2,1,1,2,1,2,0,3,0,4,-1,5,-2,6,-3,8,-4,9,-5,11,-6,12,-7]",2026-01-09 12:11:13.399,0,0,0,0,0.0,0,0,0,0,0,0,0,0.0,0.0,0.0
CSI_DATA,50593,60:60:1f:fd:0a:5b,-60,10,0,0,0,0,0,0,0,0,0,-93,0,4,0,492501181,0,67,0,128,1,"[67,48,4,0,-7,-17,-8,-18,-8,-19,-8,-20,-8,-19,-10,-19,-11,-21,-11,-21,-12,-22,-13,-22,-14,-21,-15,-20,-16,-21,-17,-22,-17,-21,-18,-20,-18,-19,-14,-20,-14,-24,-19,-29,-21,-35,-23,-34,-24,-31,-18,-27,-9,-19,-2,-4,0,0,0,0,0,0,0,0,0,0,0,0,0,0,0,0,0,0,2,1,8,4,7,5,6,6,5,7,4,7,3,6,2,6,1,5,1,4,1,3,1,2,1,1,1,0,1,-1,1,-1,1,-2,1,-2,1,-3,0,-4,0,-5,-1,-6,-2,-8,-1,-10,-1,-11,-3,-13,-4,-13]",2026-01-09 12:11:13.464,0,0,0,0,0.0,0,0,0,0,0,0,0,0.0,0.0,0.0
CSI_DATA,50600,60:60:1f:fd:0a:5b,-60,9,0,0,0,0,0,0,0,0,0,-94,0,4,0,492573187,0,67,0,128,1,"[67,48,4,0,10,-21,10,-22,11,-23,11,-24,10,-25,10,-27,10,-28,10,-29,8,-30,6,-32,5,-34,5,-35,5,-36,5,-36,4,-37,3,-38,5,-36,7,-35,8,-36,7,-37,5,-36,6,-33,9,-32,10,-29,11,-26,3,-6,0,0,0,0,0,0,0,0,0,0,0,0,0,0,0,0,0,0,0,3,2,13,1,13,-1,13,-3,13,-4,12,-5,10,-6,9,-6,7,-5,5,-4,4,-3,3,-2,2,-1,2,0,1,1,1,1,0,2,0,3,-1,4,-3,4,-4,4,-6,5,-7,8,-10,10,-15,9,-16,8,-17]",2026-01-09 12:11:13.518,0,0,0,0,0.0,0,0,0,0,0,0,0,0.0,0.0,0.0
CSI_DATA,50603,60:60:1f:fd:0a:5b,-60,14,0,0,0,0,0,0,0,0,0,-94,0,4,0,492628393,0,67,0,128,1,"[67,48,4,0,2,-21,2,-22,2,-23,2,-23,1,-23,0,-24,-1,-25,-1,-25,-2,-26,-4,-27,-5,-27,-6,-28,-7,-28,-7,-29,-8,-30,-8,-30,-6,-30,-5,-30,-5,-29,-5,-28,-7,-28,-8,-28,-6,-28,-4,-27,0,-26,0,-7,0,0,0,0,0,0,0,0,0,0,0,0,0,0,0,0,0,0,1,2,3,8,2,8,1,8,0,8,-1,7,-2,6,-3,4,-3,3,-3,2,-2,1,-2,0,-1,-1,0,-2,0,-3,1,-3,1,-3,1,-4,2,-5,1,-6,1,-8,1,-9,1,-11,2,-12,2,-14,2,-16,2,-17]",2026-01-09 12:11:13.588,0,0,0,0,0.0,0,0,0,0,0,0,0,0.0,0.0,0.0
CSI_DATA,50607,60:60:1f:fd:0a:5b,-60,14,0,0,0,0,0,0,0,0,0,-94,0,4,0,492655082,0,67,0,128,1,"[67,48,4,0,-16,13,-17,14,-17,14,-17,14,-17,15,-17,16,-17,18,-17,18,-17,19,-15,20,-14,22,-14,23,-14,24,-14,23,-15,24,-14,25,-15,25,-16,24,-16,22,-16,21,-16,22,-15,23,-16,22,-17,21,-18,20,-5,4,0,0,0,0,0,0,0,0,0,0,0,0,0,0,0,0,0,0,0,-2,3,-7,3,-7,4,-6,5,-5,5,-4,5,-2,4,-1,4,0,3,1,1,2,0,2,-1,2,-2,2,-3,2,-3,2,-4,2,-4,2,-5,3,-6,4,-6,5,-7,6,-8,7,-10,8,-11,10,-12,11,-13,11]",2026-01-09 12:11:13.641,0,0,0,0,0.0,0,0,0,0,0,0,0,0.0,0.0,0.0
CSI_DATA,50615,60:60:1f:fd:0a:5b,-59,14,0,0,0,0,0,0,0,0,0,-94,0,4,0,492753316,0,67,0,128,1,"[67,48,4,0,20,-2,20,-2,21,-2,21,-2,21,-3,21,-4,22,-5,22,-5,22,-7,22,-9,22,-10,23,-12,23,-12,24,-12,24,-13,25,-14,25,-13,25,-11,25,-10,25,-10,24,-11,24,-11,24,-11,24,-9,25,-7,6,-2,0,0,0,0,0,0,0,0,0,0,0,0,0,0,0,0,0,0,-2,0,-6,3,-6,2,-6,1,-6,-1,-5,-2,-4,-3,-3,-3,-2,-4,-1,-4,1,-4,2,-3,3,-3,4,-2,4,-1,5,-1,5,0,6,0,7,0,7,0,9,-1,10,-1,11,-1,13,-1,14,-2,16,-2,18,-2]",2026-01-09 12:11:13.697,0,0,0,0,0.0,0,0,0,0,0,0,0,0.0,0.0,0.0
CSI_DATA,50619,60:60:1f:fd:0a:5b,-60,13,0,0,0,0,0,0,0,0,0,-94,0,4,0,492816347,0,67,0,128,1,"[67,48,4,0,5,19,5,19,5,20,5,20,7,20,8,20,9,20,9,20,10,19,12,19,14,19,15,20,16,20,16,20,17,20,17,20,17,21,17,22,16,21,15,21,16,22,16,21,16,20,14,21,11,23,2,6,0,0,0,0,0,0,0,0,0,0,0,0,0,0,0,0,0,0,-2,-1,-4,-5,-4,-6,-2,-6,-1,-6,1,-5,1,-4,2,-3,3,-2,3,-1,3,0,3,1,2,2,2,3,1,3,0,5,0,5,0,6,0,6,1,7,2,8,2,10,3,11,2,10,2,12,4,15,5,17]",2026-01-09 12:11:13.766,0,0,0,0,0.0,0,0,0,0,0,0,0,0.0,0.0,0.0
CSI_DATA,50626,60:60:1f:fd:0a:5b,-60,13,0,0,0,0,0,0,0,0,0,-94,0,4,0,492883801,0,67,0,128,1,"[67,48,4,0,17,15,17,14,17,16,18,16,19,16,20,15,21,15,21,15,23,13,24,11,26,11,26,10,28,10,29,9,30,9,31,9,30,10,30,11,29,10,28,8,30,7,29,8,28,11,27,12,24,13,5,3,0,0,0,0,0,0,0,0,0,0,0,0,0,0,0,0,0,0,-2,-2,-7,-6,-6,-7,-5,-9,-4,-9,-2,-9,0,-9,1,-8,2,-7,3,-6,4,-4,4,-3,4,-2,4,0,3,1,3,1,4,2,4,3,4,3,5,4,6,5,7,6,9,7,10,9,12,10,13,11,13,12]",2026-01-09 12:11:13.827,0,0,0,0,0.0,0,0,0,0,0,0,0,0.0,0.0,0.0
CSI_DATA,50630,60:60:1f:fd:0a:5b,-60,9,0,0,0,0,0,0,0,0,0,-94,0,4,0,492925150,0,67,0,128,1,"[67,48,4,0,-17,14,-17,14,-17,14,-17,15,-17,16,-17,17,-17,18,-17,18,-16,18,-15,20,-14,22,-12,24,-13,25,-14,25,-13,27,-13,27,-15,26,-17,26,-17,26,-15,24,-12,23,-11,23,-12,23,-16,22,-19,23,-5,6,0,0,0,0,0,0,0,0,0,0,0,0,0,0,0,0,0,0,1,-2,4,-6,5,-4,6,-3,6,-2,5,-1,5,1,4,2,3,2,2,3,-1,3,-3,0,-4,1,-4,3,-4,4,-4,4,-4,4,-5,3,-5,4,-6,5,-7,6,-8,7,-9,8,-10,9,-12,10,-13,12,-14,12]",2026-01-09 12:11:13.886,0,0,0,0,0.0,0,0,0,0,0,0,0,0.0,0.0,0.0
CSI_DATA,50635,60:60:1f:fd:0a:5b,-60,13,0,0,0,0,0,0,0,0,0,-94,0,4,0,492966084,0,67,0,128,1,"[67,48,4,0,17,12,18,12,18,13,18,13,19,13,20,12,21,12,21,11,22,10,24,9,25,9,26,8,26,8,27,8,27,8,28,8,27,9,26,10,26,10,25,10,25,9,25,9,25,9,24,11,23,12,5,3,0,0,0,0,0,0,0,0,0,0,0,0,0,0,0,0,0,0,-2,-1,-7,-1,-7,-3,-7,-4,-5,-5,-4,-6,-2,-5,-1,-5,0,-4,1,-3,2,-2,2,-1,3,0,2,1,2,2,3,2,3,3,4,3,4,3,5,3,6,4,8,5,9,6,10,7,11,8,13,9,14,9]",2026-01-09 12:11:13.941,0,0,0,0,0.0,0,0,0,0,0,0,0,0.0,0.0,0.0
CSI_DATA,50644,60:60:1f:fd:0a:5b,-60,9,0,0,0,0,0,0,0,0,0,-94,0,4,0,493051267,0,67,0,128,1,"[67,48,4,0,17,10,18,10,18,10,19,11,21,10,21,9,22,9,23,9,23,8,25,6,26,6,27,6,28,6,29,6,29,6,30,6,30,7,29,8,28,9,28,8,28,8,28,7,27,8,26,10,25,12,6,3,0,0,0,0,0,0,0,0,0,0,0,0,0,0,0,0,0,0,-3,0,-10,2,-10,1,-9,0,-9,-2,-8,-2,-7,-3,-5,-3,-4,-3,-3,-2,-2,-2,-1,-1,0,0,0,1,0,2,1,3,1,3,2,4,2,4,3,4,5,5,6,5,8,6,9,6,11,7,13,8,14,8]",2026-01-09 12:11:13.995,0,0,0,0,0.0,0,0,0,0,0,0,0,0.0,0.0,0.0
CSI_DATA,50650,60:60:1f:fd:0a:5b,-60,9,0,0,0,0,0,0,0,0,0,-94,0,4,0,493096906,0,67,0,128,1,"[67,48,4,0,0,18,0,19,0,19,0,20,1,21,2,21,3,22,3,22,4,22,6,23,7,23,8,24,8,25,8,25,8,26,8,27,7,27,6,27,5,27,5,26,5,26,5,25,4,25,2,25,1,25,0,6,0,0,0,0,0,0,0,0,0,0,0,0,0,0,0,0,0,0,-2,-2,-8,-5,-7,-6,-6,-6,-5,-7,-4,-6,-3,-6,-2,-5,-1,-4,-1,-3,-1,-2,-1,-1,-2,0,-2,1,-3,1,-3,2,-3,3,-3,3,-3,4,-3,5,-2,6,-2,7,-2,9,-2,10,-1,12,-1,14,-1,15]",2026-01-09 12:11:14.064,0,0,0,0,0.0,0,0,0,0,0,0,0,0.0,0.0,0.0
CSI_DATA,50658,60:60:1f:fd:0a:5b,-60,9,0,0,0,0,0,0,0,0,0,-94,0,4,0,493170234,0,67,0,128,1,"[67,48,4,0,23,1,24,1,24,1,25,1,26,0,27,-1,27,-2,27,-3,28,-4,29,-5,30,-6,31,-7,32,-8,32,-8,32,-9,33,-9,34,-7,33,-5,32,-4,32,-4,32,-5,31,-6,31,-4,31,-1,32,1,8,0,0,0,0,0,0,0,0,0,0,0,0,0,0,0,0,0,0,0,-2,2,-8,7,-8,6,-8,5,-8,3,-8,2,-7,1,-6,0,-5,-1,-3,-1,-1,0,0,0,1,1,2,1,2,2,3,3,4,3,4,3,5,3,7,3,8,2,10,2,11,2,13,2,15,1,18,1,19,2]",2026-01-09 12:11:14.114,0,0,0,0,0.0,0,0,0,0,0,0,0,0.0,0.0,0.0
CSI_DATA,50664,60:60:1f:fd:0a:5b,-60,13,0,0,0,0,0,0,0,0,0,-94,0,4,0,493228605,0,67,0,128,1,"[67,48,4,0,-8,21,-9,22,-9,22,-9,23,-8,23,-7,24,-7,25,-7,25,-6,26,-4,27,-3,28,-2,29,-1,30,-2,30,-1,30,-1,30,-1,31,-2,31,-3,30,-3,29,-3,29,-2,29,-2,28,-4,27,-6,27,-2,7,0,0,0,0,0,0,0,0,0,0,0,0,0,0,0,0,0,0,-1,-3,-1,-9,0,-9,1,-9,3,-8,4,-7,4,-5,4,-4,4,-2,4,-1,5,0,3,2,0,3,-1,4,-2,3,-2,3,-2,3,-2,4,-3,5,-3,6,-3,8,-4,9,-4,11,-5,13,-6,15,-6,17,-7,17]",2026-01-09 12:11:14.188,0,0,0,0,0.0,0,0,0,0,0,0,0,0.0,0.0,0.0
CSI_DATA,50669,60:60:1f:fd:0a:5b,-60,9,0,0,0,0,0,0,0,0,0,-94,0,4,0,493275859,0,67,0,128,1,"[67,48,4,0,-7,20,-7,21,-7,21,-7,21,-6,22,-5,23,-5,23,-5,23,-4,23,-1,24,-1,25,0,26,1,27,1,27,1,28,1,28,0,28,-2,27,-2,26,0,27,2,26,2,26,0,26,-3,25,-4,27,-1,7,0,0,0,0,0,0,0,0,0,0,0,0,0,0,0,0,0,0,0,-2,0,-8,1,-7,3,-7,4,-6,4,-5,5,-3,5,-2,5,0,4,1,3,2,3,3,2,4,1,4,0,4,-1,4,-1,5,-1,5,-2,6,-2,7,-2,9,-2,10,-3,11,-3,12,-4,15,-4,16,-5,17]",2026-01-09 12:11:14.242,0,0,0,0,0.0,0,0,0,0,0,0,0,0.0,0.0,0.0
CSI_DATA,50675,60:60:1f:fd:0a:5b,-60,9,0,0,0,0,0,0,0,0,0,-94,0,4,0,493334179,0,67,0,128,1,"[67,48,4,0,8,16,9,17,9,17,9,17,10,17,12,17,13,17,13,16,14,16,16,15,17,15,19,15,20,15,20,16,20,16,22,16,21,17,20,17,19,17,20,16,20,16,20,15,19,16,18,17,16,19,4,5,0,0,0,0,0,0,0,0,0,0,0,0,0,0,0,0,0,0,-2,-2,-5,-5,-5,-7,-4,-8,-3,-8,-1,-8,0,-7,1,-6,2,-5,3,-4,3,-3,3,-1,3,0,2,1,2,2,2,2,1,3,2,4,2,5,3,5,3,6,4,7,4,8,5,10,6,11,7,13,8,14]",2026-01-09 12:11:14.301,0,0,0,0,0.0,0,0,0,0,0,0,0,0.0,0.0,0.0
CSI_DATA,50684,60:60:1f:fd:0a:5b,-59,14,0,0,0,0,0,0,0,0,0,-94,0,4,0,493399226,0,67,0,128,1,"[67,48,4,0,-18,14,-18,14,-19,14,-19,14,-19,15,-19,16,-19,16,-19,17,-17,20,-16,22,-16,22,-16,22,-16,24,-17,25,-18,26,-16,26,-16,25,-18,24,-15,22,-13,22,-16,24,-20,23,-23,22,-21,26,-21,29,-6,7,0,0,0,0,0,0,0,0,0,0,0,0,0,0,0,0,0,0,0,-3,2,-9,4,-8,5,-7,6,-6,6,-5,6,-3,6,-2,6,0,5,1,3,2,2,2,0,2,-1,3,-2,3,-3,2,-4,2,-4,2,-5,3,-6,4,-7,5,-8,6,-9,8,-11,8,-12,10,-13,12,-14,12]",2026-01-09 12:11:14.364,0,0,0,0,0.0,0,0,0,0,0,0,0,0.0,0.0,0.0
CSI_DATA,50692,60:60:1f:fd:0a:5b,-60,14,0,0,0,0,0,0,0,0,0,-94,0,4,0,493473075,0,67,0,128,1,"[67,48,4,0,23,-5,24,-5,24,-5,23,-7,24,-9,25,-10,25,-11,25,-12,24,-14,24,-16,24,-18,25,-19,25,-20,25,-20,26,-21,26,-22,27,-22,27,-19,27,-18,27,-19,27,-21,26,-23,25,-23,26,-19,27,-14,6,-3,0,0,0,0,0,0,0,0,0,0,0,0,0,0,0,0,0,0,-2,1,-8,6,-9,5,-9,4,-10,2,-10,0,-10,-1,-8,-3,-7,-4,-5,-4,-4,-4,-2,-4,0,-3,1,-3,2,-2,3,-2,4,-1,4,-1,6,-1,7,-2,8,-2,10,-3,11,-4,13,-4,15,-5,17,-5,19,-5]",2026-01-09 12:11:14.419,0,0,0,0,0.0,0,0,0,0,0,0,0,0.0,0.0,0.0
CSI_DATA,50697,60:60:1f:fd:0a:5b,-60,14,0,0,0,0,0,0,0,0,0,-94,0,4,0,493517444,0,67,0,128,1,"[67,48,4,0,12,19,14,19,14,20,14,20,15,20,17,20,18,20,18,20,20,18,22,17,23,18,25,18,27,17,27,17,28,17,30,17,30,19,27,20,26,20,27,20,28,19,27,18,26,18,24,19,23,21,5,5,0,0,0,0,0,0,0,0,0,0,0,0,0,0,0,0,0,0,-3,-2,-9,-6,-8,-7,-7,-8,-5,-9,-3,-10,-2,-9,0,-8,1,-7,2,-6,2,-5,2,-3,2,-2,2,0,1,1,1,2,2,2,2,3,2,4,3,5,4,6,5,7,6,9,7,11,9,12,10,14,11,15]",2026-01-09 12:11:14.487,0,0,0,0,0.0,0,0,0,0,0,0,0,0.0,0.0,0.0
CSI_DATA,50701,60:60:1f:fd:0a:5b,-60,9,0,0,0,0,0,0,0,0,0,-94,0,4,0,493548327,0,67,0,128,1,"[67,48,4,0,22,-2,23,-2,24,-2,25,-3,25,-4,26,-5,26,-6,26,-6,26,-8,27,-11,27,-12,27,-13,28,-14,29,-15,30,-16,30,-17,30,-16,30,-13,28,-12,27,-12,27,-14,28,-14,29,-13,29,-10,30,-8,7,-2,0,0,0,0,0,0,0,0,0,0,0,0,0,0,0,0,0,0,-3,0,-10,3,-10,1,-10,0,-10,-2,-9,-3,-8,-4,-7,-5,-5,-5,-3,-6,0,-6,2,-5,1,-4,2,-3,3,-2,3,-1,3,-1,4,0,5,0,6,-1,7,-1,9,-2,11,-1,14,1,17,1,18,-1,18,-2]",2026-01-09 12:11:14.547,0,0,0,0,0.0,0,0,0,0,0,0,0,0.0,0.0,0.0
CSI_DATA,50713,60:60:1f:fd:0a:5b,-59,9,0,0,0,0,0,0,0,0,0,-94,0,4,0,493654583,0,67,0,128,1,"[67,48,4,0,-19,3,-20,3,-20,3,-21,4,-21,5,-22,6,-22,6,-22,7,-23,8,-23,10,-23,11,-24,12,-24,13,-25,13,-25,14,-26,15,-26,14,-27,12,-27,11,-26,11,-26,12,-25,12,-26,11,-26,9,-27,8,-7,1,0,0,0,0,0,0,0,0,0,0,0,0,0,0,0,0,0,0,1,-3,5,-9,5,-8,6,-7,6,-6,6,-5,6,-3,6,-2,5,-2,4,-1,3,-1,1,-1,0,-2,-1,-2,-2,-3,-2,-3,-3,-3,-4,-3,-4,-3,-5,-2,-7,-2,-8,-1,-9,-1,-11,0,-12,2,-14,2,-15,2]",2026-01-09 12:11:14.599,0,0,0,0,0.0,0,0,0,0,0,0,0,0.0,0.0,0.0
CSI_DATA,50717,60:60:1f:fd:0a:5b,-59,9,0,0,0,0,0,0,0,0,0,-94,0,4,0,493690159,0,67,0,128,1,"[67,48,4,0,9,18,10,19,10,19,11,20,12,20,13,20,14,20,14,20,15,20,17,20,19,20,20,20,21,20,21,21,22,21,23,23,22,24,20,25,20,24,20,23,21,23,22,23,21,23,18,22,14,22,3,5,0,0,0,0,0,0,0,0,0,0,0,0,0,0,0,0,0,0,-3,-1,-10,-1,-10,-3,-10,-4,-9,-5,-7,-6,-6,-6,-5,-6,-3,-5,-2,-4,-2,-3,-2,-1,-1,0,-2,1,-2,2,-2,3,-2,4,-2,4,-1,5,0,6,0,7,1,8,2,9,3,11,5,12,6,14,7,15]",2026-01-09 12:11:14.660,0,0,0,0,0.0,0,0,0,0,0,0,0,0.0,0.0,0.0
CSI_DATA,50724,60:60:1f:fd:0a:5b,-60,14,0,0,0,0,0,0,0,0,0,-94,0,4,0,493766459,0,67,0,128,1,"[67,48,4,0,-16,-17,-17,-18,-17,-19,-17,-19,-19,-19,-20,-19,-20,-20,-21,-20,-22,-19,-25,-18,-26,-17,-28,-17,-29,-18,-29,-19,-30,-21,-31,-21,-30,-22,-29,-23,-26,-24,-24,-23,-24,-24,-25,-25,-24,-26,-22,-26,-23,-24,-7,-6,0,0,0,0,0,0,0,0,0,0,0,0,0,0,0,0,0,0,2,-1,11,-3,11,-2,11,-1,10,1,9,2,8,3,6,3,5,3,3,3,2,1,1,0,1,-1,1,-2,0,-3,0,-4,0,-5,-1,-6,-1,-6,-2,-7,-4,-8,-5,-8,-7,-9,-9,-10,-10,-11,-11,-12,-12,-14]",2026-01-09 12:11:14.711,68,0,77.5,17,4358.0,10,0,0,3,0,0,0,-6.0,7.0,-998.0
CSI_DATA,50729,60:60:1f:fd:0a:5b,-60,14,0,0,0,0,0,0,0,0,0,-94,0,4,0,493818276,0,67,0,128,1,"[67,48,4,0,15,-15,15,-16,16,-16,16,-17,16,-19,16,-21,16,-22,16,-22,15,-23,14,-25,13,-26,13,-28,13,-29,13,-30,13,-31,13,-31,15,-29,16,-29,16,-29,15,-29,15,-30,15,-30,16,-29,18,-26,19,-24,4,-6,0,0,0,0,0,0,0,0,0,0,0,0,0,0,0,0,0,0,-1,3,-2,12,-3,12,-4,11,-5,11,-6,9,-7,8,-7,7,-7,5,-6,4,-5,3,-4,2,-2,2,-1,2,0,1,1,1,2,1,2,1,3,0,4,-1,5,-3,6,-4,7,-5,9,-6,10,-8,12,-10,12,-12]",2026-01-09 12:11:14.762,68,0,77.5,17,4358.0,10,0,0,3,0,0,0,-6.0,7.0,-998.0
CSI_DATA,50732,60:60:1f:fd:0a:5b,-60,14,0,0,0,0,0,0,0,0,0,-94,0,4,0,493849422,0,67,0,128,1,"[67,48,4,0,-7,23,-7,24,-8,25,-8,26,-7,27,-5,28,-4,28,-4,29,-3,30,-1,31,0,32,1,32,2,33,3,34,3,36,4,38,4,36,3,34,1,35,1,35,3,34,4,32,4,31,1,33,-3,35,-1,8,0,0,0,0,0,0,0,0,0,0,0,0,0,0,0,0,0,0,-1,-4,-4,-14,-2,-14,0,-14,2,-14,3,-12,4,-11,5,-9,5,-7,5,-6,4,-4,3,-3,2,-2,1,-1,0,-1,-1,0,-2,1,-3,2,-3,3,-3,4,-3,6,-3,8,-4,10,-5,12,-6,14,-6,16,-6,18]",2026-01-09 12:11:14.812,68,0,77.5,17,4362.0,10,0,0,3,0,0,0,-4.0,7.0,-997.0
CSI_DATA,50738,60:60:1f:fd:0a:5b,-60,14,0,0,0,0,0,0,0,0,0,-94,0,4,0,493920064,0,67,0,128,1,"[67,48,4,0,-4,19,-5,20,-5,20,-4,21,-3,21,-2,22,-2,23,-1,23,0,23,2,24,4,25,5,26,6,27,6,27,7,28,8,29,7,29,5,29,5,28,5,28,6,27,6,27,5,27,3,27,1,28,0,7,0,0,0,0,0,0,0,0,0,0,0,0,0,0,0,0,0,0,0,-3,0,-11,1,-10,3,-10,4,-9,5,-8,6,-7,6,-5,6,-4,7,-3,6,-2,5,-1,4,0,2,2,1,3,1,2,-1,2,-1,3,0,4,0,5,-1,6,-1,7,-2,9,-2,10,-1,12,-1,14,-3,16]",2026-01-09 12:11:14.864,68,0,77.5,17,4362.0,10,0,0,3,0,0,0,-4.0,7.0,-997.0
CSI_DATA,50744,60:60:1f:fd:0a:5b,-60,14,0,0,0,0,0,0,0,0,0,-94,0,4,0,493972127,0,67,0,128,1,"[67,48,4,0,-5,19,-5,20,-5,20,-5,21,-4,21,-3,22,-2,23,-1,23,0,24,2,24,4,25,5,27,6,27,6,28,7,28,7,29,7,30,6,29,5,29,5,29,5,29,6,29,5,29,3,29,1,29,0,7,0,0,0,0,0,0,0,0,0,0,0,0,0,0,0,0,0,0,-1,-3,0,-11,1,-11,2,-11,3,-10,5,-9,6,-7,6,-6,6,-4,6,-3,5,-2,4,-1,3,0,2,1,1,1,0,2,-1,2,-1,3,-1,3,-2,5,-2,6,-2,7,-2,9,-3,10,-3,12,-4,14,-4,16]",2026-01-09 12:11:14.932,68,0,77.5,17,4356.0,10,0,0,3,0,0,0,-7.0,7.0,-999.0
CSI_DATA,50748,60:60:1f:fd:0a:5b,-60,14,0,0,0,0,0,0,0,0,0,-94,0,4,0,494021757,0,67,0,128,1,"[67,48,4,0,19,-11,20,-12,21,-12,21,-13,21,-14,20,-15,20,-16,20,-17,19,-19,18,-21,18,-22,18,-24,18,-25,19,-26,19,-26,19,-27,20,-26,21,-25,21,-25,21,-26,20,-27,19,-27,19,-26,21,-24,22,-22,5,-6,0,0,0,0,0,0,0,0,0,0,0,0,0,0,0,0,0,0,-2,2,-8,8,-9,7,-10,6,-11,5,-11,3,-11,1,-10,0,-9,-2,-8,-3,-6,-3,-4,-3,-3,-3,-1,-3,0,-3,1,-2,2,-2,3,-2,4,-3,5,-3,6,-4,8,-5,9,-6,11,-7,13,-8,14,-9,15,-9]",2026-01-09 12:11:14.989,68,0,77.5,17,4356.0,10,0,0,3,0,0,0,-7.0,7.0,-999.0
CSI_DATA,50755,60:60:1f:fd:0a:5b,-60,9,0,0,0,0,0,0,0,0,0,-94,0,4,0,494103529,0,67,0,128,1,"[67,48,4,0,5,23,5,23,5,24,6,25,7,25,9,25,10,24,11,25,12,25,14,24,15,24,16,24,18,24,19,24,20,24,21,25,21,26,20,26,19,26,18,25,19,24,20,23,19,24,16,26,14,27,3,7,0,0,0,0,0,0,0,0,0,0,0,0,0,0,0,0,0,0,-2,-2,-6,-8,-4,-9,-3,-10,-1,-10,0,-9,2,-8,2,-7,3,-6,4,-4,4,-2,3,-1,2,1,2,2,1,3,0,3,0,4,0,5,0,6,1,7,1,9,1,10,2,12,2,14,3,16,4,18,4,19]",2026-01-09 12:11:15.047,68,0,77.5,17,4360.0,10,0,0,3,0,0,0,-5.0,7.0,-999.0
CSI_DATA,50760,60:60:1f:fd:0a:5b,-60,9,0,0,0,0,0,0,0,0,0,-94,0,4,0,494145997,0,67,0,128,1,"[67,48,4,0,-10,20,-10,20,-11,21,-11,22,-10,23,-9,24,-8,24,-8,24,-7,25,-5,26,-4,27,-3,29,-3,29,-4,29,-4,30,-3,32,-3,32,-4,30,-5,29,-4,29,-3,30,-2,31,-2,30,-4,28,-7,27,-2,6,0,0,0,0,0,0,0,0,0,0,0,0,0,0,0,0,0,0,0,-3,1,-10,2,-10,3,-10,4,-9,5,-8,6,-7,7,-4,7,-2,6,-1,5,0,4,1,3,2,1,2,1,2,0,2,-1,3,-1,3,-2,4,-2,6,-3,8,-4,9,-4,10,-5,12,-6,14,-6,16,-7,17]",2026-01-09 12:11:15.109,68,0,77.5,17,4354.0,10,0,0,3,0,0,0,-5.0,7.0,-997.0
CSI_DATA,50767,60:60:1f:fd:0a:5b,-60,9,0,0,0,0,0,0,0,0,0,-94,0,4,0,494217476,0,67,0,128,1,"[67,48,4,0,-17,-9,-18,-9,-18,-10,-19,-10,-19,-10,-20,-9,-21,-9,-21,-9,-22,-8,-23,-7,-24,-7,-25,-6,-26,-6,-25,-7,-26,-8,-26,-8,-27,-9,-26,-10,-25,-10,-24,-9,-24,-9,-25,-10,-23,-12,-22,-13,-25,-13,-7,-4,0,0,0,0,0,0,0,0,0,0,0,0,0,0,0,0,0,0,1,-2,7,-6,7,-5,7,-3,7,-2,6,-1,5,0,4,1,3,1,2,0,1,0,0,-1,-1,-2,-2,-2,-2,-3,-2,-3,-3,-4,-3,-4,-4,-4,-5,-4,-6,-4,-8,-5,-9,-5,-10,-6,-12,-6,-14,-6,-14,-7]",2026-01-09 12:11:15.162,68,0,77.5,17,4354.0,10,0,0,3,0,0,0,-5.0,7.0,-997.0
CSI_DATA,50773,60:60:1f:fd:0a:5b,-60,9,0,0,0,0,0,0,0,0,0,-94,0,4,0,494269522,0,67,0,128,1,"[67,48,4,0,15,-14,16,-14,17,-15,17,-15,17,-16,16,-17,16,-18,16,-19,15,-20,14,-22,14,-23,14,-24,14,-25,14,-26,14,-27,14,-27,16,-27,17,-26,17,-25,16,-25,17,-25,17,-25,16,-24,18,-22,21,-21,5,-6,0,0,0,0,0,0,0,0,0,0,0,0,0,0,0,0,0,0,0,2,0,11,0,10,-1,10,-4,10,-5,9,-5,7,-4,5,-4,4,-3,3,-2,2,-1,1,0,1,2,1,3,1,3,1,4,0,4,0,5,-1,6,-2,7,-3,7,-4,8,-5,9,-6,10,-8,12,-9,13,-10]",2026-01-09 12:11:15.217,68,0,77.5,17,4354.0,10,0,0,3,0,0,0,-6.0,7.0,-1001.0
CSI_DATA,50778,60:60:1f:fd:0a:5b,-58,9,0,0,0,0,0,0,0,0,0,-94,0,4,0,494307629,0,67,0,128,1,"[67,48,4,0,21,4,20,3,18,3,17,2,16,0,15,-1,13,-2,12,-4,11,-5,10,-6,9,-8,9,-9,9,-10,9,-10,9,-11,8,-11,8,-11,8,-10,8,-10,7,-10,7,-11,6,-11,6,-11,6,-10,6,-9,1,-3,0,0,0,0,0,0,0,0,0,0,0,0,0,0,0,0,0,0,2,-2,10,-7,12,-6,14,-6,17,-5,19,-3,20,-2,22,0,23,2,24,3,25,5,25,7,25,8,25,9,24,9,24,9,23,9,23,9,23,8,24,7,24,7,25,6,25,5,25,5,26,5,26,5,25,5]",2026-01-09 12:11:15.291,68,0,77.5,17,4354.0,10,0,0,3,0,0,0,-6.0,7.0,-1001.0
CSI_DATA,50790,60:60:1f:fd:0a:5b,-57,14,0,0,0,0,0,0,0,0,0,-94,0,4,0,494404756,0,67,0,128,1,"[67,48,4,0,18,-15,16,-15,15,-14,13,-14,11,-14,9,-14,7,-14,5,-13,4,-14,2,-14,0,-14,-1,-15,-2,-15,-2,-15,-2,-15,-2,-15,-2,-15,-2,-14,-2,-13,-2,-13,-3,-13,-4,-12,-4,-12,-3,-12,-3,-11,-1,-3,0,0,0,0,0,0,0,0,0,0,0,0,0,0,0,0,0,0,0,-4,2,-13,3,-14,5,-15,8,-16,10,-17,12,-17,14,-17,17,-17,19,-17,20,-16,21,-16,22,-15,23,-14,23,-13,23,-13,23,-13,22,-13,22,-13,22,-14,21,-15,21,-16,21,-17,21,-17,21,-18,21,-18,21,-18]",2026-01-09 12:11:15.349,68,0,77.5,17,4358.0,10,0,0,3,0,0,0,-6.0,7.0,-1000.0
CSI_DATA,50793,60:60:1f:fd:0a:5b,-59,14,0,0,0,0,0,0,0,0,0,-93,0,4,0,494433615,0,67,0,128,1,"[67,48,4,0,22,-2,21,-3,19,-3,18,-3,16,-4,15,-5,13,-6,11,-7,10,-8,9,-9,8,-11,8,-12,7,-13,7,-13,8,-13,7,-12,7,-12,7,-12,6,-12,5,-12,4,-12,3,-12,3,-11,4,-11,5,-12,1,-3,0,0,0,0,0,0,0,0,0,0,0,0,0,0,0,0,0,0,1,-3,7,-10,9,-10,11,-10,14,-10,16,-9,18,-8,20,-7,22,-6,24,-4,25,-3,25,-2,26,-1,26,1,26,1,26,1,25,1,25,1,25,1,25,0,25,-1,26,-1,26,-2,26,-2,27,-2,27,-3,27,-3]",2026-01-09 12:11:15.413,68,0,77.5,17,4358.0,10,0,0,3,0,0,0,-5.0,6.0,-1000.0
CSI_DATA,50802,60:60:1f:fd:0a:5b,-59,14,0,0,0,0,0,0,0,0,0,-93,0,4,0,494531142,0,67,0,128,1,"[67,48,4,0,23,12,22,11,20,10,19,8,18,6,18,4,17,3,16,1,16,-1,16,-3,16,-5,16,-6,16,-7,16,-7,16,-7,16,-7,16,-7,15,-6,15,-6,14,-7,13,-7,13,-8,13,-8,13,-7,13,-6,3,-2,0,0,0,0,0,0,0,0,0,0,0,0,0,0,0,0,0,0,3,-1,13,-4,15,-3,17,-1,19,1,21,3,22,5,23,7,24,9,24,12,25,14,25,15,24,16,24,17,23,18,23,18,23,17,23,17,23,17,24,16,25,16,25,16,25,18,25,19,25,14,26,12,26,14]",2026-01-09 12:11:15.474,68,0,77.5,17,4358.0,10,0,0,3,0,0,0,-5.0,6.0,-1000.0
CSI_DATA,50806,60:60:1f:fd:0a:5b,-59,14,0,0,0,0,0,0,0,0,0,-93,0,4,0,494586158,0,67,0,128,1,"[67,48,4,0,-23,12,-21,12,-20,11,-18,12,-16,12,-14,12,-12,12,-10,13,-8,13,-6,14,-5,15,-4,16,-3,16,-3,16,-3,16,-3,17,-3,16,-3,15,-2,15,-2,14,-1,14,0,14,-1,14,-2,14,-2,14,-1,3,0,0,0,0,0,0,0,0,0,0,0,0,0,0,0,0,0,0,-2,3,-6,13,-8,14,-10,14,-13,15,-15,15,-17,15,-19,15,-22,14,-24,14,-26,12,-27,11,-28,10,-28,10,-28,9,-28,9,-28,9,-27,9,-27,9,-27,11,-27,12,-27,13,-28,14,-27,12,-26,11,-27,12,-27,12]",2026-01-09 12:11:15.537,68,0,80.5,17,4358.0,10,0,0,3,0,0,0,-6.0,7.0,-998.0
CSI_DATA,50810,60:60:1f:fd:0a:5b,-58,14,0,0,0,0,0,0,0,0,0,-93,0,4,0,494614429,0,67,0,128,1,"[67,48,4,0,-1,24,0,22,1,20,1,19,2,17,4,16,5,14,6,13,7,12,9,11,10,10,10,9,11,8,12,9,12,9,13,8,11,8,9,8,9,7,10,6,10,6,10,5,10,5,9,5,8,6,2,1,0,0,0,0,0,0,0,0,0,0,0,0,0,0,0,0,0,0,2,2,8,10,8,11,7,14,7,16,6,18,5,20,4,22,2,23,1,24,0,25,-1,26,-2,27,-3,27,-4,27,-4,27,-4,26,-4,26,-3,26,-3,27,-2,27,-1,28,-1,28,0,28,1,28,1,28,0,27]",2026-01-09 12:11:15.591,68,0,80.5,17,4358.0,10,0,0,3,0,0,0,-6.0,7.0,-998.0
CSI_DATA,50818,60:60:1f:fd:0a:5b,-59,14,0,0,0,0,0,0,0,0,0,-93,0,4,0,494697869,0,67,0,128,1,"[67,48,4,0,-21,-16,-20,-15,-19,-14,-18,-12,-17,-10,-17,-8,-17,-6,-16,-4,-16,-2,-17,-1,-17,1,-17,2,-17,2,-17,3,-18,3,-17,3,-17,4,-16,4,-16,3,-16,3,-16,4,-15,4,-14,5,-14,5,-16,4,-5,1,0,0,0,0,0,0,0,0,0,0,0,0,0,0,0,0,0,0,-4,0,-15,1,-16,0,-18,-2,-19,-4,-21,-6,-22,-8,-22,-11,-23,-13,-23,-15,-22,-17,-22,-19,-22,-20,-21,-21,-21,-22,-21,-21,-21,-21,-20,-20,-21,-20,-22,-20,-22,-20,-24,-19,-25,-19,-27,-17,-27,-15,-25,-17,-24,-19]",2026-01-09 12:11:15.642,68,0,80.5,17,4360.0,10,0,0,3,0,0,0,-6.0,7.0,-1000.0
CSI_DATA,50822,60:60:1f:fd:0a:5b,-59,14,0,0,0,0,0,0,0,0,0,-93,0,4,0,494746535,0,67,0,128,1,"[67,48,4,0,-7,-23,-7,-21,-7,-20,-7,-18,-8,-16,-9,-15,-10,-13,-11,-12,-11,-10,-13,-9,-14,-8,-15,-7,-15,-7,-16,-7,-16,-7,-16,-6,-15,-6,-15,-6,-14,-6,-14,-5,-14,-5,-14,-5,-14,-5,-13,-5,-13,-6,-4,-2,0,0,0,0,0,0,0,0,0,0,0,0,0,0,0,0,0,0,-3,-2,-12,-8,-12,-10,-12,-13,-12,-15,-11,-17,-11,-19,-10,-21,-9,-23,-7,-25,-6,-26,-5,-27,-4,-27,-3,-27,-2,-27,-2,-27,-3,-27,-2,-27,-3,-26,-4,-26,-5,-27,-5,-27,-6,-27,-6,-27,-7,-27,-7,-27,-6,-27]",2026-01-09 12:11:15.705,68,0,80.5,17,4360.0,10,0,0,3,0,0,0,-6.0,7.0,-1000.0
CSI_DATA,50828,60:60:1f:fd:0a:5b,-57,14,0,0,0,0,0,0,0,0,0,-93,0,4,0,494795660,0,67,0,128,1,"[67,48,4,0,-3,-25,-3,-23,-4,-21,-4,-19,-6,-18,-7,-16,-8,-15,-9,-13,-10,-12,-12,-10,-13,-9,-14,-9,-15,-8,-15,-8,-16,-8,-16,-7,-16,-7,-15,-7,-14,-7,-14,-6,-14,-6,-14,-5,-14,-5,-14,-6,-13,-6,-4,-2,0,0,0,0,0,0,0,0,0,0,0,0,0,0,0,0,0,0,-3,-3,-10,-12,-10,-14,-9,-16,-9,-19,-8,-21,-6,-23,-5,-24,-3,-26,-1,-27,0,-29,1,-29,3,-29,4,-30,4,-29,4,-29,4,-28,4,-28,3,-28,2,-28,1,-29,1,-29,0,-29,0,-30,-1,-30,-2,-30,-2,-29]",2026-01-09 12:11:15.795,68,0,80.5,17,4355.0,10,0,0,3,0,0,0,-6.0,6.0,-1000.0
CSI_DATA,50833,60:60:1f:fd:0a:5b,-59,14,0,0,0,0,0,0,0,0,0,-93,0,4,0,494848375,0,67,0,128,1,"[67,48,4,0,13,-19,11,-18,10,-17,8,-16,6,-16,4,-15,3,-14,1,-13,-1,-13,-3,-13,-5,-12,-6,-12,-7,-12,-8,-12,-8,-12,-9,-13,-9,-12,-8,-12,-8,-11,-8,-11,-9,-10,-9,-10,-9,-10,-9,-10,-8,-10,-2,-3,0,0,0,0,0,0,0,0,0,0,0,0,0,0,0,0,0,0,-1,-4,-1,-14,0,-15,2,-17,4,-19,6,-20,8,-21,10,-21,12,-22,15,-22,16,-22,18,-22,18,-21,19,-21,19,-21,20,-20,20,-19,19,-19,19,-19,19,-20,18,-21,18,-22,18,-23,18,-23,18,-23,18,-22,17,-22]",2026-01-09 12:11:15.851,68,0,80.5,17,4360.0,10,0,0,3,0,0,0,-6.0,6.0,-999.0
CSI_DATA,50834,60:60:1f:fd:0a:5b,-59,14,0,0,0,0,0,0,0,0,0,-93,0,4,0,494874851,0,67,0,128,1,"[67,48,4,0,-27,-5,-25,-4,-24,-4,-22,-2,-20,-1,-19,1,-17,2,-15,4,-14,6,-13,7,-12,8,-12,10,-11,10,-11,10,-11,11,-11,12,-10,12,-10,11,-9,9,-8,10,-7,11,-7,11,-6,10,-6,11,-6,12,-2,3,0,0,0,0,0,0,0,0,0,0,0,0,0,0,0,0,0,0,-4,2,-13,8,-15,7,-18,6,-21,5,-23,4,-25,2,-27,0,-29,-2,-30,-4,-31,-6,-32,-8,-32,-9,-31,-11,-31,-11,-31,-11,-31,-11,-30,-11,-30,-11,-31,-10,-32,-9,-32,-8,-32,-8,-32,-8,-33,-7,-32,-7,-31,-7]",2026-01-09 12:11:15.901,68,0,80.5,17,4360.0,10,0,0,3,0,0,0,-6.0,6.0,-999.0
CSI_DATA,50846,60:60:1f:fd:0a:5b,-57,14,0,0,0,0,0,0,0,0,0,-93,0,4,0,495009586,0,67,0,128,1,"[67,48,4,0,25,3,24,2,21,2,19,0,18,-1,16,-3,15,-4,13,-5,11,-6,10,-8,8,-10,7,-11,6,-12,6,-13,6,-13,6,-14,6,-14,5,-13,5,-13,4,-13,4,-13,3,-13,3,-13,3,-13,4,-12,1,-3,0,0,0,0,0,0,0,0,0,0,0,0,0,0,0,0,0,0,2,-2,11,-8,13,-7,15,-7,18,-6,20,-5,22,-4,24,-2,26,1,27,2,28,4,29,5,29,6,29,8,29,8,29,8,29,8,28,8,29,8,29,7,30,6,30,5,30,5,30,5,31,4,31,4,31,4]",2026-01-09 12:11:15.953,68,0,80.5,17,4362.0,10,0,0,3,0,0,0,-6.0,7.0,-1000.0
CSI_DATA,50851,60:60:1f:fd:0a:5b,-57,14,0,0,0,0,0,0,0,0,0,-93,0,4,0,495047632,0,67,0,128,1,"[67,48,4,0,0,-24,-1,-23,-1,-21,-2,-19,-3,-18,-4,-16,-5,-14,-6,-13,-7,-11,-9,-10,-10,-9,-11,-8,-12,-7,-12,-6,-13,-6,-14,-6,-14,-6,-13,-5,-12,-5,-13,-5,-13,-4,-13,-4,-12,-3,-11,-4,-11,-4,-3,-2,0,0,0,0,0,0,0,0,0,0,0,0,0,0,0,0,0,0,-3,-3,-9,-11,-8,-13,-8,-15,-7,-17,-7,-20,-5,-21,-4,-23,-2,-25,-1,-27,1,-28,2,-28,3,-29,4,-29,5,-29,5,-29,4,-28,4,-28,5,-28,4,-28,3,-29,2,-29,1,-29,3,-28,5,-27,3,-29,2,-30]",2026-01-09 12:11:16.014,68,0,80.5,17,4362.0,10,0,0,3,0,0,0,-6.0,7.0,-1000.0
CSI_DATA,50860,60:60:1f:fd:0a:5b,-57,14,0,0,0,0,0,0,0,0,0,-93,0,4,0,495123785,0,67,0,128,1,"[67,48,4,0,-9,22,-8,21,-6,19,-5,18,-3,17,-2,16,0,15,1,14,3,13,4,12,6,12,7,12,8,11,8,11,9,11,10,11,10,11,8,11,7,10,7,9,8,9,9,9,9,8,7,8,7,9,1,2,0,0,0,0,0,0,0,0,0,0,0,0,0,0,0,0,0,0,1,2,5,11,4,13,3,15,2,17,0,19,-1,21,-3,22,-5,23,-7,24,-9,25,-10,25,-11,25,-13,25,-13,25,-13,25,-13,25,-13,24,-13,24,-13,25,-12,26,-11,27,-11,27,-11,27,-10,27,-10,27,-10,27]",2026-01-09 12:11:16.068,68,0,80.5,17,4362.0,10,0,0,3,0,0,0,-5.0,6.0,-1000.0
CSI_DATA,50866,60:60:1f:fd:0a:5b,-58,14,0,0,0,0,0,0,0,0,0,-93,0,4,0,495170489,0,67,0,128,1,"[67,48,4,0,25,-5,24,-5,21,-5,20,-6,18,-7,16,-8,13,-8,12,-9,10,-11,9,-13,6,-14,5,-15,5,-15,5,-15,4,-16,4,-17,4,-17,5,-16,4,-12,3,-11,2,-14,1,-16,2,-16,4,-18,6,-18,1,-5,0,0,0,0,0,0,0,0,0,0,0,0,0,0,0,0,0,0,2,-3,9,-10,11,-10,13,-10,16,-11,19,-10,22,-9,23,-8,25,-6,26,-5,28,-3,29,-2,29,-1,30,-1,30,0,30,1,30,0,29,0,29,0,30,-2,31,-3,31,-3,30,-4,30,-5,30,-5,30,-4,30,-4]",2026-01-09 12:11:16.132,68,0,80.5,17,4358.0,10,0,0,3,0,0,0,-8.0,8.0,-999.0
CSI_DATA,50870,60:60:1f:fd:0a:5b,-57,14,0,0,0,0,0,0,0,0,0,-93,0,4,0,495209624,0,67,0,128,1,"[67,48,4,0,-10,24,-8,22,-7,20,-5,19,-4,18,-2,16,0,15,1,14,3,13,5,12,7,12,8,11,9,11,10,11,11,11,12,10,12,10,11,9,10,9,10,10,11,10,11,9,10,9,10,9,10,10,2,2,0,0,0,0,0,0,0,0,0,0,0,0,0,0,0,0,0,0,1,3,4,12,4,14,3,16,2,18,1,20,-1,22,-3,24,-5,25,-7,26,-9,27,-10,28,-11,28,-13,28,-13,28,-13,27,-14,27,-14,26,-14,26,-13,27,-13,28,-12,28,-12,29,-12,30,-10,31,-10,29,-11,27]",2026-01-09 12:11:16.189,68,0,80.5,17,4358.0,10,0,0,3,0,0,0,-8.0,8.0,-999.0
CSI_DATA,50880,60:60:1f:fd:0a:5b,-60,14,0,0,0,0,0,0,0,0,0,-93,0,4,0,495300850,0,67,0,128,1,"[67,48,4,0,15,11,15,11,16,11,16,11,17,10,18,10,19,10,19,9,20,9,22,8,23,7,25,7,25,7,25,7,25,7,26,8,26,9,26,10,24,10,24,10,24,9,24,9,23,10,22,12,21,14,5,3,0,0,0,0,0,0,0,0,0,0,0,0,0,0,0,0,0,0,-2,0,-8,3,-8,2,-8,1,-7,0,-7,-1,-6,-1,-5,-1,-4,-1,-3,0,-2,1,-1,1,-1,2,-1,3,-1,3,0,4,0,5,1,5,1,5,3,5,4,6,5,6,7,7,8,7,9,7,10,8,12,9]",2026-01-09 12:11:16.244,68,0,80.5,17,4355.0,10,0,0,3,0,0,0,-5.0,8.0,-999.0
CSI_DATA,50884,60:60:1f:fd:0a:5b,-57,14,0,0,0,0,0,0,0,0,0,-93,0,4,0,495335273,0,67,0,128,1,"[67,48,4,0,21,-16,19,-15,17,-14,15,-14,13,-14,11,-14,9,-14,7,-14,5,-14,3,-15,1,-15,0,-16,-1,-16,-2,-16,-3,-17,-3,-17,-3,-17,-3,-17,-2,-16,-3,-16,-4,-16,-5,-17,-4,-16,-2,-15,-1,-16,-1,-4,0,0,0,0,0,0,0,0,0,0,0,0,0,0,0,0,0,0,0,-4,3,-14,4,-15,6,-16,8,-17,11,-18,13,-18,15,-18,18,-18,20,-18,22,-18,23,-17,24,-17,26,-16,26,-16,26,-15,26,-15,26,-15,26,-15,26,-16,26,-17,26,-18,26,-18,26,-18,26,-18,25,-19,25,-18]",2026-01-09 12:11:16.340,68,0,80.5,17,4362.0,10,0,0,3,0,0,0,-6.0,5.0,-999.0
CSI_DATA,50897,60:60:1f:fd:0a:5b,-56,9,0,0,0,0,0,0,0,0,0,-93,0,4,0,495450195,0,67,0,128,1,"[67,48,4,0,-18,-24,-18,-22,-17,-21,-16,-19,-16,-17,-16,-15,-16,-13,-16,-10,-16,-8,-17,-6,-18,-4,-18,-3,-18,-2,-19,-1,-18,-1,-18,0,-18,0,-18,0,-17,-1,-17,-1,-16,0,-16,0,-16,-1,-15,-1,-16,-1,-5,-1,0,0,0,0,0,0,0,0,0,0,0,0,0,0,0,0,0,0,-4,-1,-14,-3,-15,-5,-16,-7,-18,-9,-19,-12,-19,-14,-20,-16,-20,-19,-20,-22,-19,-24,-19,-26,-18,-27,-18,-28,-17,-29,-17,-29,-17,-28,-16,-28,-17,-29,-18,-29,-18,-29,-19,-29,-19,-28,-20,-28,-20,-28,-21,-28,-20,-28]",2026-01-09 12:11:16.395,68,0,80.5,17,4362.0,10,0,0,3,0,0,0,-6.0,5.0,-999.0
CSI_DATA,50901,60:60:1f:fd:0a:5b,-58,9,0,0,0,0,0,0,0,0,0,-93,0,4,0,495477274,0,67,0,128,1,"[67,48,4,0,3,-28,2,-26,2,-24,1,-23,0,-21,-2,-20,-4,-19,-5,-16,-6,-14,-7,-13,-9,-13,-10,-13,-11,-12,-12,-12,-12,-13,-13,-11,-14,-9,-15,-10,-15,-8,-14,-8,-13,-10,-13,-11,-13,-9,-12,-8,-11,-10,-3,-3,0,0,0,0,0,0,0,0,0,0,0,0,0,0,0,0,0,0,-3,-3,-8,-11,-7,-12,-6,-15,-6,-18,-5,-20,-3,-22,-2,-24,0,-26,2,-27,3,-28,5,-29,6,-29,7,-30,8,-30,8,-30,8,-29,8,-29,8,-29,7,-30,7,-31,6,-31,6,-31,5,-32,5,-32,4,-32,4,-31]",2026-01-09 12:11:16.460,68,0,80.5,17,4357.0,10,0,0,3,0,0,0,-5.0,6.0,-1000.0
CSI_DATA,50910,60:60:1f:fd:0a:5b,-56,14,0,0,0,0,0,0,0,0,0,-93,0,4,0,495566130,0,67,0,128,1,"[67,48,4,0,-22,-15,-21,-14,-19,-13,-18,-11,-17,-10,-16,-8,-15,-6,-15,-5,-15,-3,-14,0,-14,1,-13,3,-13,4,-13,5,-14,6,-13,6,-13,6,-12,6,-12,6,-11,6,-10,7,-10,8,-11,7,-11,7,-10,7,-3,1,0,0,0,0,0,0,0,0,0,0,0,0,0,0,0,0,0,0,-4,0,-15,0,-16,-1,-18,-3,-20,-5,-21,-7,-22,-9,-22,-11,-23,-14,-23,-16,-23,-18,-23,-19,-23,-20,-22,-21,-22,-21,-22,-21,-22,-21,-21,-21,-21,-21,-22,-20,-23,-20,-24,-20,-24,-20,-24,-19,-25,-18,-25,-18,-25,-18]",2026-01-09 12:11:16.511,68,0,80.5,17,4357.0,10,0,0,3,0,0,0,-5.0,6.0,-1000.0
CSI_DATA,50917,60:60:1f:fd:0a:5b,-56,9,0,0,0,0,0,0,0,0,0,-93,0,4,0,495626431,0,67,0,128,1,"[67,48,4,0,-9,24,-8,23,-7,21,-6,20,-5,19,-3,17,-2,16,0,14,1,13,3,12,5,11,6,11,7,11,7,11,8,10,9,10,8,10,8,10,8,9,8,8,9,8,9,7,8,7,8,8,7,8,1,2,0,0,0,0,0,0,0,0,0,0,0,0,0,0,0,0,0,0,1,3,4,14,3,16,2,18,0,20,-2,21,-4,23,-6,24,-8,25,-10,26,-12,26,-13,26,-14,26,-15,26,-16,25,-15,25,-15,25,-15,24,-15,25,-14,26,-13,26,-12,27,-12,27,-12,27,-12,28,-11,28,-11,28]",2026-01-09 12:11:16.589,68,0,80.5,17,4361.0,10,0,0,3,0,0,0,-7.0,7.0,-1000.0
CSI_DATA,50920,60:60:1f:fd:0a:5b,-56,9,0,0,0,0,0,0,0,0,0,-93,0,4,0,495660518,0,67,0,128,1,"[67,48,4,0,-21,-17,-20,-16,-19,-15,-17,-13,-17,-11,-16,-10,-15,-8,-15,-6,-14,-4,-14,-2,-13,-1,-13,1,-13,2,-13,3,-13,3,-13,4,-13,4,-12,4,-12,4,-11,5,-11,5,-11,5,-10,5,-10,4,-11,4,-3,1,0,0,0,0,0,0,0,0,0,0,0,0,0,0,0,0,0,0,-4,-1,-16,-1,-17,-3,-18,-5,-20,-7,-21,-9,-21,-11,-22,-13,-22,-16,-22,-18,-22,-20,-22,-22,-21,-22,-20,-23,-20,-24,-20,-24,-20,-23,-19,-23,-20,-23,-21,-22,-22,-22,-22,-21,-23,-21,-23,-21,-24,-21,-24,-20,-23,-20]",2026-01-09 12:11:16.641,68,0,80.5,17,4361.0,10,0,0,3,0,0,0,-6.0,7.0,-1001.0
CSI_DATA,50931,60:60:1f:fd:0a:5b,-56,13,0,0,0,0,0,0,0,0,0,-93,0,4,0,495755135,0,67,0,128,1,"[67,48,4,0,20,12,19,11,18,10,17,8,17,7,16,5,15,3,14,2,13,0,12,-2,12,-3,12,-5,11,-5,11,-6,11,-7,11,-7,10,-7,10,-7,9,-7,8,-7,9,-8,10,-7,10,-8,11,-8,12,-8,3,-2,0,0,0,0,0,0,0,0,0,0,0,0,0,0,0,0,0,0,3,-1,13,0,14,0,16,2,17,3,18,5,19,7,20,8,21,10,21,13,21,15,21,16,21,17,21,18,20,18,20,18,20,18,20,18,20,17,21,17,22,16,23,16,23,15,23,15,24,15,24,15,23,15]",2026-01-09 12:11:16.699,68,0,80.5,17,4361.0,10,0,0,3,0,0,0,-6.0,7.0,-1001.0
CSI_DATA,50936,60:60:1f:fd:0a:5b,-56,13,0,0,0,0,0,0,0,0,0,-93,0,4,0,495808605,0,67,0,128,1,"[67,48,4,0,-20,-19,-19,-18,-18,-16,-17,-15,-17,-12,-16,-11,-16,-9,-15,-7,-15,-5,-15,-3,-15,-2,-15,0,-15,1,-15,2,-15,3,-15,3,-14,4,-14,4,-13,4,-13,4,-13,5,-13,5,-13,5,-13,4,-13,4,-4,1,0,0,0,0,0,0,0,0,0,0,0,0,0,0,0,0,0,0,-4,-1,-15,-3,-16,-4,-18,-6,-19,-9,-20,-11,-20,-13,-20,-15,-21,-17,-21,-20,-20,-22,-20,-23,-19,-24,-19,-25,-18,-26,-18,-25,-18,-25,-18,-25,-19,-25,-20,-24,-21,-24,-21,-24,-21,-23,-21,-24,-22,-24,-22,-23,-22,-23]",2026-01-09 12:11:16.753,68,0,80.5,17,4361.0,10,0,0,3,0,0,0,-6.0,7.0,-1000.0
CSI_DATA,50941,60:60:1f:fd:0a:5b,-56,13,0,0,0,0,0,0,0,0,0,-93,0,4,0,495863614,0,67,0,128,1,"[67,48,4,0,25,6,23,6,21,5,20,4,19,2,17,1,16,0,14,-1,13,-3,12,-5,11,-6,11,-7,10,-8,10,-9,10,-10,9,-10,9,-10,9,-10,8,-10,8,-10,8,-10,7,-11,7,-11,8,-10,8,-9,2,-3,0,0,0,0,0,0,0,0,0,0,0,0,0,0,0,0,0,0,3,-2,13,-6,14,-6,16,-5,19,-3,21,-2,22,0,23,1,25,3,26,5,27,6,27,7,27,9,27,10,27,11,27,11,27,11,26,11,27,11,28,10,28,9,29,9,29,8,29,8,29,8,29,7,29,8]",2026-01-09 12:11:16.807,68,0,80.5,17,4361.0,10,0,0,3,0,0,0,-6.0,7.0,-1000.0
CSI_DATA,50947,60:60:1f:fd:0a:5b,-56,13,0,0,0,0,0,0,0,0,0,-93,0,4,0,495919211,0,67,0,128,1,"[67,48,4,0,-3,26,-2,25,-2,23,-1,21,0,20,2,18,2,17,3,15,4,13,5,12,7,11,8,10,9,9,9,9,10,9,10,8,10,8,10,7,9,7,10,6,10,6,10,6,10,6,9,6,9,6,2,1,0,0,0,0,0,0,0,0,0,0,0,0,0,0,0,0,0,0,1,3,7,13,6,14,6,16,5,18,4,20,3,22,1,24,0,25,-2,27,-3,28,-5,28,-6,28,-7,28,-7,29,-7,29,-7,28,-7,28,-7,28,-6,29,-5,30,-4,30,-4,30,-4,30,-4,31,-4,31,-4,30]",2026-01-09 12:11:16.863,68,0,80.5,17,4360.0,10,0,0,3,0,0,0,-6.0,5.0,-998.0
CSI_DATA,50952,60:60:1f:fd:0a:5b,-56,13,0,0,0,0,0,0,0,0,0,-93,0,4,0,495971215,0,67,0,128,1,"[67,48,4,0,-11,24,-10,23,-9,21,-7,20,-6,19,-4,18,-3,16,-2,15,0,14,2,13,3,12,4,12,5,11,6,11,7,11,8,11,7,11,7,10,7,10,7,9,8,9,8,9,8,9,7,9,6,9,1,2,0,0,0,0,0,0,0,0,0,0,0,0,0,0,0,0,0,0,1,3,4,13,3,15,2,17,0,19,-1,20,-3,22,-4,23,-6,24,-8,25,-10,26,-11,26,-13,26,-14,26,-15,26,-14,26,-14,25,-14,25,-14,25,-14,26,-13,27,-12,28,-12,28,-13,27,-13,28,-12,29,-12,28]",2026-01-09 12:11:16.914,68,0,80.5,17,4360.0,10,0,0,3,0,0,0,-6.0,5.0,-998.0
CSI_DATA,50959,60:60:1f:fd:0a:5b,-56,13,0,0,0,0,0,0,0,0,0,-93,0,4,0,496028331,0,67,0,128,1,"[67,48,4,0,-3,27,-2,25,-1,23,0,22,1,20,2,18,3,17,4,15,5,13,6,12,8,11,9,10,9,9,10,9,11,9,11,8,11,8,10,8,10,8,10,7,11,6,11,6,10,7,11,7,11,8,2,2,0,0,0,0,0,0,0,0,0,0,0,0,0,0,0,0,0,0,2,2,8,12,8,13,7,15,7,18,6,20,5,22,3,24,2,25,0,27,-2,28,-3,29,-4,29,-5,29,-6,30,-6,29,-5,29,-6,28,-6,29,-5,30,-4,30,-4,31,-3,31,-3,31,-2,31,-2,31,-3,31]",2026-01-09 12:11:16.972,68,0,80.5,17,4360.0,10,0,0,3,0,0,0,0.0,8.0,-998.0
CSI_DATA,50964,60:60:1f:fd:0a:5b,-56,13,0,0,0,0,0,0,0,0,0,-93,0,4,0,496081497,0,67,0,128,1,"[67,48,4,0,11,-24,10,-23,9,-22,8,-21,6,-20,4,-19,3,-17,1,-16,0,-16,-2,-16,-4,-16,-6,-15,-6,-13,-7,-13,-8,-12,-8,-11,-7,-13,-7,-12,-6,-9,-6,-7,-8,-9,-11,-7,-13,-6,-13,-10,-11,-13,-3,-4,0,0,0,0,0,0,0,0,0,0,0,0,0,0,0,0,0,0,-1,-4,-1,-15,0,-16,1,-18,3,-20,4,-21,7,-22,8,-23,10,-24,12,-24,14,-25,15,-25,16,-25,17,-25,18,-25,18,-24,17,-24,17,-24,17,-24,16,-25,16,-27,15,-27,16,-27,16,-24,13,-25,12,-27,14,-27]",2026-01-09 12:11:17.026,68,0,80.5,17,4360.0,10,0,0,3,0,0,0,0.0,8.0,-998.0
CSI_DATA,50970,60:60:1f:fd:0a:5b,-56,8,0,0,0,0,0,0,0,0,0,-93,0,4,0,496134453,0,67,0,128,1,"[67,48,4,0,24,5,23,5,22,4,20,3,18,2,17,1,16,0,15,-1,14,-2,13,-4,11,-5,11,-6,10,-7,10,-8,10,-8,9,-9,9,-9,8,-9,7,-10,6,-10,6,-10,5,-10,5,-10,5,-11,5,-11,1,-3,0,0,0,0,0,0,0,0,0,0,0,0,0,0,0,0,0,0,3,-2,12,-6,14,-5,16,-4,17,-3,19,-3,21,-2,22,-1,24,0,25,1,26,2,27,3,27,4,27,5,27,6,28,6,28,6,28,6,28,6,28,6,28,5,29,5,29,5,29,5,28,5,28,5,28,5]",2026-01-09 12:11:17.078,68,0,80.5,17,4360.0,10,0,0,3,0,0,0,10.0,11.0,-967.0
CSI_DATA,50974,60:60:1f:fd:0a:5b,-56,8,0,0,0,0,0,0,0,0,0,-93,0,4,0,496184554,0,67,0,128,1,"[67,48,4,0,-25,-8,-23,-8,-22,-7,-20,-6,-19,-5,-17,-4,-16,-3,-16,-1,-15,1,-14,2,-13,2,-13,3,-12,4,-11,5,-11,4,-10,5,-8,7,-7,6,-5,7,-5,8,-9,6,-12,5,-11,5,-8,9,-4,16,-1,4,0,0,0,0,0,0,0,0,0,0,0,0,0,0,0,0,0,0,-4,1,-15,4,-16,3,-18,2,-19,1,-21,0,-23,-1,-24,-2,-25,-3,-26,-5,-27,-6,-28,-8,-28,-8,-28,-9,-28,-10,-28,-10,-29,-10,-29,-10,-28,-10,-28,-10,-28,-9,-29,-9,-30,-9,-32,-10,-32,-11,-30,-10,-28,-9]",2026-01-09 12:11:17.129,68,0,80.5,17,4360.0,10,0,0,3,0,0,0,10.0,11.0,-967.0
CSI_DATA,50979,60:60:1f:fd:0a:5b,-57,8,0,0,0,0,0,0,0,0,0,-93,0,4,0,496241333,0,67,0,128,1,"[67,48,4,0,-26,5,-24,5,-22,5,-21,4,-19,4,-18,5,-16,6,-14,6,-12,6,-11,7,-9,8,-8,8,-7,8,-6,9,-4,11,-3,12,-1,12,0,10,-2,9,-4,8,-4,8,-2,9,0,9,1,10,3,10,1,2,0,0,0,0,0,0,0,0,0,0,0,0,0,0,0,0,0,0,-2,2,-8,10,-10,10,-12,10,-13,10,-15,10,-18,11,-19,11,-21,11,-22,10,-24,9,-25,9,-26,8,-27,7,-27,7,-28,7,-28,7,-28,7,-28,7,-29,8,-28,8,-29,8,-29,8,-30,8,-30,8,-29,8,-29,8]",2026-01-09 12:11:17.185,68,0,80.5,17,4360.0,10,0,0,4,0,0,0,11.0,31.0,-953.0
CSI_DATA,50983,60:60:1f:fd:0a:5b,-55,8,0,0,0,0,0,0,0,0,0,-93,0,4,0,496326526,0,67,0,128,1,"[67,48,4,0,27,-13,25,-12,24,-12,22,-12,19,-11,17,-11,15,-11,14,-11,11,-12,9,-12,7,-12,6,-13,4,-13,4,-14,3,-13,1,-13,0,-14,0,-14,-1,-13,-2,-12,-2,-11,-3,-12,-4,-12,-4,-12,-5,-12,-2,-3,0,0,0,0,0,0,0,0,0,0,0,0,0,0,0,0,0,0,0,-4,4,-15,6,-15,8,-15,9,-16,12,-16,14,-17,16,-17,18,-16,20,-16,22,-16,23,-16,24,-15,25,-15,26,-15,26,-15,27,-16,28,-16,28,-17,28,-17,29,-17,29,-17,31,-18,31,-18,31,-17,30,-16,30,-16]",2026-01-09 12:11:17.271,68,0,80.5,17,4360.0,10,0,0,4,0,0,0,1.0,-1.0,-1027.0
CSI_DATA,50987,60:60:1f:fd:0a:5b,-54,8,0,0,0,0,0,0,0,0,0,-93,0,4,0,496385163,0,67,0,128,1,"[67,48,4,0,-31,0,-29,0,-28,1,-26,1,-23,2,-22,3,-20,3,-18,4,-16,6,-15,7,-13,8,-12,10,-11,11,-10,12,-10,13,-9,13,-9,14,-8,14,-7,15,-7,14,-6,14,-5,14,-5,14,-5,15,-4,15,-1,3,0,0,0,0,0,0,0,0,0,0,0,0,0,0,0,0,0,0,-1,2,-5,10,-7,10,-9,10,-11,9,-14,9,-16,9,-18,9,-20,8,-22,7,-24,6,-25,5,-27,4,-27,3,-28,3,-29,3,-30,3,-31,3,-32,3,-32,3,-32,3,-33,3,-34,2,-35,2,-35,1,-34,1,-34,1]",2026-01-09 12:11:17.329,68,0,80.5,17,4360.0,10,0,0,4,0,0,0,1.0,-1.0,-1027.0
CSI_DATA,50992,60:60:1f:fd:0a:5b,-52,8,0,0,0,0,0,0,0,0,0,-93,0,4,0,496439026,0,67,0,128,1,"[67,48,4,0,17,-19,16,-18,16,-18,15,-18,14,-17,13,-17,12,-17,10,-17,9,-18,8,-18,7,-19,6,-19,5,-20,5,-21,5,-22,5,-23,5,-23,6,-23,6,-23,6,-23,6,-23,7,-22,7,-21,8,-22,8,-21,2,-6,0,0,0,0,0,0,0,0,0,0,0,0,0,0,0,0,0,0,0,0,0,0,0,-1,0,-3,0,-4,1,-6,1,-8,2,-9,3,-11,4,-12,6,-13,6,-14,7,-15,8,-16,10,-17,11,-17,11,-18,12,-18,13,-19,14,-19,14,-20,15,-20,16,-21,16,-21,17,-21,17,-21,17,-21]",2026-01-09 12:11:17.383,68,0,80.5,17,4360.0,10,0,0,5,0,0,0,18.0,7.0,-1199.0
CSI_DATA,50997,60:60:1f:fd:0a:5b,-51,8,0,0,0,0,0,0,0,0,0,-93,0,4,0,496489988,0,67,0,128,1,"[67,48,4,0,3,21,3,21,4,21,5,21,5,22,6,22,7,22,7,22,8,22,8,22,9,22,9,23,10,24,11,25,11,26,10,27,10,28,10,29,9,29,7,29,6,29,5,29,4,29,3,30,2,30,0,7,0,0,0,0,0,0,0,0,0,0,0,0,0,0,0,0,0,0,-3,2,-11,10,-11,9,-10,8,-9,7,-9,8,-8,8,-7,9,-6,10,-5,10,-5,11,-4,12,-4,12,-3,13,-3,14,-3,14,-3,15,-2,16,-2,16,-2,16,-1,17,0,18,1,18,5,16,5,17,0,24,1,25]",2026-01-09 12:11:17.434,68,0,80.5,17,4360.0,10,0,0,5,0,0,0,18.0,7.0,-1199.0
CSI_DATA,51001,60:60:1f:fd:0a:5b,-51,8,0,0,0,0,0,0,0,0,0,-93,0,4,0,496543643,0,67,0,128,1,"[67,48,4,0,12,-15,11,-15,10,-15,8,-16,7,-16,6,-17,5,-18,5,-19,4,-19,3,-19,3,-20,3,-20,2,-20,2,-21,2,-21,2,-21,1,-22,1,-23,1,-23,2,-23,2,-23,2,-23,2,-23,3,-23,4,-24,1,-6,0,0,0,0,0,0,0,0,0,0,0,0,0,0,0,0,0,0,3,-6,14,-22,15,-22,16,-20,16,-18,15,-20,16,-20,17,-19,18,-19,18,-18,19,-18,19,-18,19,-18,19,-18,19,-17,19,-17,19,-17,19,-17,19,-17,18,-17,18,-17,18,-17,17,-17,17,-17,16,-17,16,-16,15,-16]",2026-01-09 12:11:17.488,68,0,80.5,18,4360.0,10,0,0,7,0,0,0,22.0,8.0,-1398.0
CSI_DATA,51009,60:60:1f:fd:0a:5b,-52,12,0,0,0,0,0,0,0,0,0,-93,0,4,0,496601519,0,67,0,128,1,"[67,48,4,0,-28,23,-28,22,-27,22,-26,21,-25,20,-24,20,-23,19,-22,20,-20,21,-18,21,-17,21,-17,22,-17,22,-16,23,-15,23,-14,22,-12,22,-12,22,-13,20,-14,20,-13,20,-11,21,-8,21,-8,22,-9,21,-3,5,0,0,0,0,0,0,0,0,0,0,0,0,0,0,0,0,0,0,-1,2,-2,11,-3,12,-4,13,-5,14,-7,15,-8,16,-10,17,-11,17,-13,18,-14,18,-15,19,-16,19,-17,19,-18,20,-19,20,-20,21,-21,21,-21,22,-22,22,-23,22,-23,23,-24,24,-25,24,-25,24,-25,24,-26,25]",2026-01-09 12:11:17.545,68,0,81.5,18,4360.0,10,0,0,9,0,0,3,-27.0,20.0,-1223.0
CSI_DATA,51016,60:60:1f:fd:0a:5b,-53,12,0,0,0,0,0,0,0,0,0,-93,0,4,0,496652506,0,67,0,128,1,"[67,48,4,0,-28,-5,-28,-6,-27,-6,-26,-6,-25,-6,-24,-6,-23,-5,-23,-4,-23,-3,-23,-2,-22,-1,-22,0,-22,1,-23,2,-23,3,-23,3,-23,3,-23,3,-23,3,-22,3,-21,3,-20,3,-20,4,-20,4,-20,4,-5,1,0,0,0,0,0,0,0,0,0,0,0,0,0,0,0,0,0,0,-5,1,-19,6,-20,5,-20,4,-20,4,-21,3,-21,3,-22,2,-22,2,-22,2,-22,1,-22,0,-22,0,-22,0,-22,0,-22,0,-23,0,-23,0,-24,1,-24,0,-24,0,-25,0,-27,0,-29,-2,-28,-2,-27,-1,-28,-2]",2026-01-09 12:11:17.597,68,0,81.5,18,4360.0,10,0,0,9,0,0,3,-27.0,20.0,-1223.0
CSI_DATA,51023,60:60:1f:fd:0a:5b,-51,12,0,0,0,0,0,0,0,0,0,-93,0,4,0,496706464,0,67,0,128,1,"[67,48,4,0,-12,23,-12,23,-11,23,-11,23,-10,22,-10,21,-10,21,-9,21,-9,21,-9,21,-9,21,-8,21,-9,21,-9,21,-9,20,-10,19,-10,18,-9,18,-8,17,-6,16,-7,14,-6,14,-4,13,-5,13,-7,13,-2,3,0,0,0,0,0,0,0,0,0,0,0,0,0,0,0,0,0,0,-1,2,-2,11,-3,12,-3,12,-4,13,-4,14,-5,15,-5,16,-6,17,-6,18,-7,19,-8,19,-9,20,-9,20,-10,20,-10,21,-10,21,-10,21,-10,22,-11,22,-11,22,-11,22,-11,23,-11,24,-11,24,-11,24,-11,24]",2026-01-09 12:11:17.651,68,0,81.5,18,4386.0,18,0,0,12,0,0,5,14.0,1.0,-1104.0
CSI_DATA,51030,60:60:1f:fd:0a:5b,-50,12,0,0,0,0,0,0,0,0,0,-93,0,4,0,496758079,0,67,0,128,1,"[67,48,4,0,-13,-17,-13,-17,-14,-18,-15,-18,-15,-18,-16,-18,-17,-19,-17,-19,-18,-20,-18,-20,-18,-21,-18,-21,-18,-22,-17,-23,-16,-23,-15,-23,-15,-23,-14,-23,-13,-23,-12,-23,-11,-22,-10,-21,-9,-21,-9,-21,-9,-21,-2,-6,0,0,0,0,0,0,0,0,0,0,0,0,0,0,0,0,0,0,0,-4,3,-16,3,-16,3,-15,4,-15,4,-15,4,-15,3,-15,3,-15,3,-15,3,-15,3,-15,2,-15,2,-14,1,-14,0,-14,-1,-14,-2,-14,-3,-14,-3,-14,-4,-14,-5,-14,-6,-14,-7,-15,-8,-15,-9,-15,-10,-16]",2026-01-09 12:11:17.702,68,0,81.5,18,4386.0,18,0,0,12,0,0,5,14.0,1.0,-1104.0
CSI_DATA,51035,60:60:1f:fd:0a:5b,-47,12,0,0,0,0,0,0,0,0,0,-93,0,4,0,496808995,0,67,0,128,1,"[67,48,4,0,-12,-20,-11,-19,-11,-19,-11,-18,-11,-17,-11,-16,-12,-16,-13,-15,-14,-15,-15,-15,-15,-15,-15,-14,-16,-15,-16,-15,-17,-15,-16,-15,-16,-16,-16,-17,-16,-16,-15,-16,-14,-17,-14,-18,-13,-19,-12,-19,-11,-19,-3,-5,0,0,0,0,0,0,0,0,0,0,0,0,0,0,0,0,0,0,-3,-4,-9,-15,-9,-15,-9,-15,-9,-15,-9,-16,-9,-17,-9,-17,-9,-17,-9,-18,-9,-18,-9,-19,-9,-19,-9,-18,-9,-18,-9,-19,-10,-19,-11,-19,-11,-19,-11,-20,-11,-20,-11,-20,-12,-20,-12,-21,-12,-20,-12,-20,-12,-20]",2026-01-09 12:11:17.754,68,0,81.5,18,4400.0,27,0,0,15,0,0,6,-7.0,9.0,-1029.0
CSI_DATA,51041,60:60:1f:fd:0a:5b,-50,12,0,0,0,0,0,0,0,0,0,-93,0,4,0,496861298,0,67,0,128,1,"[67,48,4,0,26,-3,26,-2,25,-2,25,-2,24,-1,23,-2,22,-2,21,-2,21,-3,20,-4,19,-4,19,-5,19,-6,19,-7,19,-7,19,-7,20,-8,21,-8,21,-8,21,-8,22,-7,22,-6,23,-5,24,-5,25,-4,6,-1,0,0,0,0,0,0,0,0,0,0,0,0,0,0,0,0,0,0,5,0,21,1,20,2,20,3,19,3,18,4,18,4,18,4,17,3,17,3,17,3,16,2,16,2,16,1,16,0,17,-1,17,-2,18,-3,19,-4,20,-4,21,-5,22,-5,23,-6,24,-5,25,-5,25,-5,25,-5]",2026-01-09 12:11:17.805,68,0,81.5,18,4400.0,27,0,0,15,0,0,6,-7.0,9.0,-1029.0
CSI_DATA,51047,60:60:1f:fd:0a:5b,-53,12,0,0,0,0,0,0,0,0,0,-93,0,4,0,496912686,0,67,0,128,1,"[67,48,4,0,27,-3,26,-3,26,-3,24,-3,23,-3,22,-3,20,-3,19,-3,17,-4,15,-4,13,-3,10,-3,10,-4,9,-5,7,-5,4,-4,0,-5,-2,-9,-3,-12,-4,-13,-5,-13,-5,-14,-6,-16,-6,-18,-6,-19,-2,-5,0,0,0,0,0,0,0,0,0,0,0,0,0,0,0,0,0,0,7,-2,29,-5,30,-4,31,-2,31,0,32,1,33,2,33,3,33,4,33,5,33,6,32,7,31,7,30,7,29,6,29,5,29,4,29,3,29,2,28,1,28,0,28,-1,29,-2,29,-3,29,-3,28,-3,29,-3]",2026-01-09 12:11:17.856,68,0,81.5,18,4414.0,35,0,0,18,0,0,6,-2.0,20.0,-993.0
CSI_DATA,51052,60:60:1f:fd:0a:5b,-50,12,0,0,0,0,0,0,0,0,0,-93,0,4,0,496966871,0,67,0,128,1,"[67,48,4,0,-10,-28,-10,-29,-10,-29,-10,-29,-10,-28,-10,-29,-10,-29,-10,-29,-10,-29,-10,-29,-9,-29,-9,-29,-8,-29,-7,-28,-6,-27,-5,-26,-4,-25,-3,-24,-2,-23,-2,-21,-1,-19,-1,-17,-1,-15,0,-14,0,-13,0,-3,0,0,0,0,0,0,0,0,0,0,0,0,0,0,0,0,0,0,1,-3,5,-10,5,-10,6,-11,6,-11,6,-11,6,-12,7,-13,7,-13,7,-13,7,-13,7,-13,6,-13,6,-13,5,-13,4,-13,2,-14,1,-14,-1,-15,-2,-15,-4,-16,-5,-18,-7,-19,-8,-21,-9,-22,-9,-23,-10,-25]",2026-01-09 12:11:17.911,68,0,81.5,18,4414.0,35,0,0,18,0,0,6,-2.0,20.0,-993.0
CSI_DATA,51059,60:60:1f:fd:0a:5b,-51,12,0,0,0,0,0,0,0,0,0,-93,0,4,0,497024180,0,67,0,128,1,"[67,48,4,0,7,-12,7,-14,8,-16,8,-18,8,-19,8,-20,9,-22,9,-24,9,-25,9,-27,10,-28,10,-29,10,-30,10,-31,11,-32,12,-32,12,-33,11,-33,11,-33,12,-32,12,-31,13,-31,13,-29,13,-29,14,-29,3,-8,0,0,0,0,0,0,0,0,0,0,0,0,0,0,0,0,0,0,2,0,9,2,9,3,9,4,9,5,10,6,11,7,11,7,11,8,11,9,11,10,10,11,10,11,9,11,8,11,8,10,7,10,7,9,6,8,6,6,6,5,6,3,6,2,6,0,6,-2,5,-4,6,-6]",2026-01-09 12:11:17.968,68,0,81.5,18,4417.0,45,0,0,21,0,0,6,-1.0,6.0,-981.0
CSI_DATA,51064,60:60:1f:fd:0a:5b,-56,12,0,0,0,0,0,0,0,0,0,-93,0,4,0,497080442,0,67,0,128,1,"[67,48,4,0,9,-43,10,-41,10,-39,11,-36,11,-33,11,-30,10,-27,8,-25,6,-22,5,-20,4,-17,2,-15,-1,-13,-3,-11,-4,-10,-7,-10,-10,-10,-13,-11,-16,-10,-17,-9,-17,-10,-18,-11,-20,-13,-18,-15,-17,-15,-5,-4,0,0,0,0,0,0,0,0,0,0,0,0,0,0,0,0,0,0,4,-6,19,-22,18,-20,17,-19,16,-18,16,-18,15,-18,14,-18,12,-18,11,-18,9,-18,7,-19,4,-20,2,-21,1,-23,-1,-26,-2,-28,-4,-31,-4,-33,-4,-36,-4,-38,-3,-40,-2,-42,-1,-44,0,-45,1,-45,2,-46]",2026-01-09 12:11:18.025,68,0,81.5,18,4417.0,45,0,0,21,0,0,6,-1.0,6.0,-981.0
CSI_DATA,51070,60:60:1f:fd:0a:5b,-49,12,0,0,0,0,0,0,0,0,0,-93,0,4,0,497138308,0,67,0,128,1,"[67,48,4,0,-1,-23,-1,-23,-1,-23,-1,-23,-1,-22,-1,-22,-1,-22,-2,-22,-2,-21,-3,-21,-3,-21,-4,-20,-4,-20,-4,-20,-4,-20,-5,-20,-5,-20,-5,-20,-5,-20,-5,-21,-5,-21,-4,-20,-4,-21,-3,-21,-2,-21,-1,-6,0,0,0,0,0,0,0,0,0,0,0,0,0,0,0,0,0,0,-1,-5,-2,-19,-2,-19,-1,-19,0,-20,1,-20,1,-21,2,-21,3,-22,4,-22,5,-21,5,-21,5,-21,5,-20,5,-19,5,-19,4,-19,4,-19,3,-19,3,-19,2,-19,2,-20,1,-21,-1,-22,-1,-22,-1,-22,-1,-22]",2026-01-09 12:11:18.083,68,0,81.5,18,4429.0,54,0,0,24,0,0,5,-4.0,1.0,-922.0
CSI_DATA,51076,60:60:1f:fd:0a:5b,-53,12,0,0,0,0,0,0,0,0,0,-93,0,4,0,497199190,0,67,0,128,1,"[67,48,4,0,25,0,25,-1,25,-2,25,-3,25,-3,25,-4,26,-4,26,-5,26,-5,26,-5,26,-4,25,-4,25,-4,25,-4,24,-4,23,-3,22,-4,21,-4,20,-4,19,-5,18,-6,17,-7,17,-8,17,-9,18,-10,4,-3,0,0,0,0,0,0,0,0,0,0,0,0,0,0,0,0,0,0,1,-2,7,-5,7,-6,9,-6,10,-7,12,-7,14,-8,16,-8,18,-8,20,-7,22,-6,23,-4,24,-3,24,-2,24,-1,25,0,25,0,25,0,25,0,25,0,25,0,26,0,26,0,27,0,27,0,26,0,26,0]",2026-01-09 12:11:18.143,68,0,81.5,18,4429.0,54,0,0,24,0,0,5,-4.0,1.0,-922.0
CSI_DATA,51082,60:60:1f:fd:0a:5b,-55,12,0,0,0,0,0,0,0,0,0,-93,0,4,0,497257565,0,67,0,128,1,"[67,48,4,0,17,-5,17,-6,18,-8,18,-9,18,-11,19,-12,20,-14,21,-16,22,-17,23,-18,24,-19,25,-19,27,-19,28,-18,28,-17,28,-16,29,-15,30,-13,29,-12,28,-10,26,-9,24,-7,22,-6,21,-6,20,-6,5,-2,0,0,0,0,0,0,0,0,0,0,0,0,0,0,0,0,0,0,-1,4,-4,17,-4,17,-5,16,-5,15,-5,14,-5,14,-4,13,-4,12,-3,11,-2,10,0,10,1,9,2,8,3,7,5,7,6,7,7,6,8,5,8,5,9,4,10,3,11,2,12,0,13,-1,14,-2,15,-3]",2026-01-09 12:11:18.201,68,0,81.5,18,4440.0,60,0,0,27,0,0,4,3.0,2.0,-884.0
CSI_DATA,51087,60:60:1f:fd:0a:5b,-54,12,0,0,0,0,0,0,0,0,0,-93,0,4,0,497307285,0,67,0,128,1,"[67,48,4,0,-10,-11,-11,-10,-12,-9,-12,-7,-13,-6,-14,-4,-16,-2,-18,-1,-20,1,-22,2,-23,2,-24,3,-26,3,-28,3,-28,3,-29,3,-30,3,-30,3,-30,2,-30,1,-30,0,-30,-1,-30,-1,-30,-2,-30,-3,-8,-1,0,0,0,0,0,0,0,0,0,0,0,0,0,0,0,0,0,0,-1,-7,-2,-28,-1,-29,1,-29,2,-29,4,-30,5,-31,6,-30,7,-30,9,-28,9,-27,9,-26,9,-25,8,-23,7,-21,6,-21,4,-20,3,-20,1,-19,0,-19,-1,-18,-2,-17,-3,-17,-4,-17,-6,-16,-7,-15,-7,-14]",2026-01-09 12:11:18.251,68,10,81.5,18,4445.0,68,0,0,30,0,0,3,9.0,14.0,-951.0
CSI_DATA,51092,60:60:1f:fd:0a:5b,-54,12,0,0,0,0,0,0,0,0,0,-93,0,4,0,497371001,0,67,0,128,1,"[67,48,4,0,-15,-25,-15,-25,-15,-25,-15,-24,-14,-23,-14,-22,-14,-22,-14,-21,-15,-20,-15,-19,-15,-18,-15,-17,-15,-17,-14,-17,-13,-16,-12,-15,-11,-14,-10,-13,-9,-12,-8,-11,-7,-9,-7,-8,-6,-6,-6,-5,-7,-4,-2,-1,0,0,0,0,0,0,0,0,0,0,0,0,0,0,0,0,0,0,-4,-4,-13,-15,-13,-17,-12,-19,-11,-21,-10,-22,-10,-24,-9,-25,-8,-26,-6,-27,-5,-28,-4,-28,-4,-28,-3,-27,-3,-26,-3,-26,-4,-25,-5,-25,-6,-25,-7,-24,-7,-24,-8,-24,-10,-24,-11,-25,-12,-25,-13,-24,-14,-24]",2026-01-09 12:11:18.316,68,10,81.5,18,4445.0,68,0,0,30,0,0,3,9.0,14.0,-951.0
CSI_DATA,51099,60:60:1f:fd:0a:5b,-53,12,0,0,0,0,0,0,0,0,0,-93,0,4,0,497423881,0,67,0,128,1,"[67,48,4,0,-12,26,-12,27,-11,28,-11,28,-11,28,-10,28,-10,28,-10,29,-8,30,-8,31,-8,31,-8,31,-7,31,-6,32,-6,31,-6,30,-6,31,-6,32,-5,32,-6,30,-6,27,-8,27,-8,26,-6,25,-5,25,-2,6,0,0,0,0,0,0,0,0,0,0,0,0,0,0,0,0,0,0,0,4,2,18,1,19,-1,19,-3,19,-5,20,-6,21,-8,21,-10,21,-11,21,-13,20,-14,20,-15,19,-16,18,-16,18,-17,17,-17,17,-16,17,-16,17,-16,17,-15,18,-15,18,-14,19,-14,20,-13,21,-12,22,-11,23]",2026-01-09 12:11:18.368,68,10,81.5,18,4452.0,76,0,0,34,0,0,2,9.0,0.0,-919.0
CSI_DATA,51105,60:60:1f:fd:0a:5b,-55,12,0,0,0,0,0,0,0,0,0,-93,0,4,0,497486606,0,67,0,128,1,"[67,48,4,0,13,15,14,16,16,16,16,17,17,17,18,17,19,17,20,17,21,16,22,16,23,17,24,16,25,16,26,15,26,14,28,15,30,17,31,16,31,16,31,16,31,15,31,16,30,17,31,18,32,18,8,4,0,0,0,0,0,0,0,0,0,0,0,0,0,0,0,0,0,0,4,0,17,3,17,4,17,5,17,6,17,7,17,8,17,10,17,11,16,12,16,13,14,14,13,15,12,15,11,15,10,16,10,16,9,17,9,17,8,16,7,16,7,16,6,16,5,16,6,16,9,14,11,14]",2026-01-09 12:11:18.430,68,10,81.5,18,4452.0,76,0,0,34,0,0,2,9.0,0.0,-919.0
CSI_DATA,51109,60:60:1f:fd:0a:5b,-58,12,0,0,0,0,0,0,0,0,0,-93,0,4,0,497537104,0,67,0,128,1,"[67,48,4,0,20,-3,21,-4,22,-4,22,-4,22,-5,22,-5,23,-7,24,-8,24,-8,24,-9,24,-10,24,-11,25,-13,26,-14,27,-14,28,-13,29,-13,30,-15,31,-16,32,-18,32,-18,33,-17,33,-17,34,-16,36,-15,9,-4,0,0,0,0,0,0,0,0,0,0,0,0,0,0,0,0,0,0,2,-1,11,-4,11,-5,12,-5,13,-6,14,-6,15,-5,16,-5,17,-4,18,-3,18,-2,18,-2,18,-1,18,-1,18,0,18,0,19,1,19,1,19,1,18,2,18,2,18,2,18,2,18,1,17,0,17,-1,17,-1]",2026-01-09 12:11:18.481,68,10,81.5,19,4460.0,82,0,0,37,0,0,2,-1.0,0.0,-917.0
CSI_DATA,51115,60:60:1f:fd:0a:5b,-58,12,0,0,0,0,0,0,0,0,0,-93,0,4,0,497590212,0,67,0,128,1,"[67,48,4,0,-6,-19,-6,-20,-6,-20,-6,-20,-6,-21,-6,-21,-7,-21,-8,-22,-8,-22,-8,-22,-8,-22,-8,-23,-8,-23,-9,-23,-9,-23,-9,-24,-9,-25,-10,-26,-9,-27,-8,-25,-8,-24,-7,-24,-6,-26,-4,-28,-4,-31,-1,-8,0,0,0,0,0,0,0,0,0,0,0,0,0,0,0,0,0,0,0,-4,3,-15,3,-14,4,-14,4,-14,4,-14,4,-15,4,-15,4,-15,5,-15,5,-15,5,-15,5,-15,4,-14,4,-14,3,-14,2,-14,1,-14,1,-15,0,-15,0,-15,-1,-15,-2,-15,-3,-16,-4,-16,-4,-16,-5,-17]",2026-01-09 12:11:18.535,68,10,81.5,19,4460.0,82,0,0,37,0,0,2,-1.0,0.0,-917.0
CSI_DATA,51121,60:60:1f:fd:0a:5b,-56,12,0,0,0,0,0,0,0,0,0,-93,0,4,0,497646335,0,67,0,128,1,"[67,48,4,0,6,-24,6,-25,6,-25,7,-25,6,-25,6,-25,6,-26,5,-26,5,-26,5,-27,5,-27,6,-27,6,-28,6,-28,6,-28,6,-27,6,-28,6,-28,6,-28,6,-28,7,-28,7,-28,7,-28,9,-28,11,-28,3,-7,0,0,0,0,0,0,0,0,0,0,0,0,0,0,0,0,0,0,3,-2,13,-6,13,-6,13,-5,13,-5,14,-5,15,-5,15,-6,15,-5,15,-5,15,-4,14,-4,13,-4,12,-4,10,-4,9,-5,8,-6,7,-8,6,-10,6,-11,5,-13,5,-14,5,-16,4,-17,4,-18,4,-20,4,-21]",2026-01-09 12:11:18.590,68,10,82.0,19,4461.0,90,0,0,40,0,0,1,4.0,3.0,-920.0
CSI_DATA,51126,60:60:1f:fd:0a:5b,-55,12,0,0,0,0,0,0,0,0,0,-93,0,4,0,497704193,0,67,0,128,1,"[67,48,4,0,-16,17,-17,18,-17,18,-17,18,-17,19,-16,19,-17,20,-17,22,-17,23,-17,24,-17,24,-18,25,-19,25,-19,26,-19,26,-20,26,-21,27,-22,27,-22,26,-23,25,-23,24,-23,24,-23,23,-24,23,-26,22,-7,5,0,0,0,0,0,0,0,0,0,0,0,0,0,0,0,0,0,0,-2,-2,-7,-7,-7,-7,-8,-7,-8,-7,-9,-7,-9,-7,-10,-7,-10,-7,-10,-7,-10,-7,-10,-7,-9,-6,-8,-5,-8,-4,-7,-3,-7,-1,-7,0,-8,2,-8,4,-9,5,-10,7,-11,9,-12,11,-12,12,-12,13,-13,14]",2026-01-09 12:11:18.648,68,20,82.0,19,4469.0,92,0,0,43,0,0,0,8.0,1.0,-907.0
CSI_DATA,51131,60:60:1f:fd:0a:5b,-55,8,0,0,0,0,0,0,0,0,0,-93,0,4,0,497757718,0,67,0,128,1,"[67,48,4,0,9,15,10,15,11,16,12,16,14,16,15,16,17,16,20,17,22,17,23,18,25,19,26,20,27,21,29,22,29,23,29,24,29,25,29,26,28,26,28,27,27,27,26,27,26,28,25,29,25,30,6,7,0,0,0,0,0,0,0,0,0,0,0,0,0,0,0,0,0,0,-1,-2,-4,-7,-4,-6,-4,-5,-4,-4,-5,-3,-6,-2,-7,-1,-7,0,-8,0,-8,0,-8,0,-8,0,-8,0,-8,0,-7,1,-6,2,-5,3,-3,3,-3,4,-2,5,0,6,1,8,2,9,3,10,5,11,6,12]",2026-01-09 12:11:18.701,68,20,82.0,19,4469.0,92,0,0,43,0,0,0,8.0,1.0,-907.0
CSI_DATA,51136,60:60:1f:fd:0a:5b,-57,13,0,0,0,0,0,0,0,0,0,-93,0,4,0,497820400,0,67,0,128,1,"[67,48,4,0,-3,6,-3,7,-4,9,-4,10,-4,13,-3,15,-3,17,-3,19,-2,22,-1,25,-1,28,0,31,1,33,1,35,1,37,1,40,0,40,-1,41,-2,41,-2,41,-1,41,-1,41,-1,40,-3,39,-5,38,-2,9,0,0,0,0,0,0,0,0,0,0,0,0,0,0,0,0,0,0,-3,3,-9,13,-9,12,-8,11,-8,9,-7,9,-5,8,-3,7,-2,6,-1,6,1,6,2,5,4,5,5,5,5,4,6,4,6,4,6,3,6,3,5,2,5,2,5,2,4,2,4,2,3,2,2,3,1,3]",2026-01-09 12:11:18.764,68,20,82.0,19,4470.0,96,0,0,47,0,0,0,17.0,7.0,-929.0
CSI_DATA,51142,60:60:1f:fd:0a:5b,-57,8,0,0,0,0,0,0,0,0,0,-93,0,4,0,497875664,0,67,0,128,1,"[67,48,4,0,0,-14,0,-14,1,-14,3,-14,4,-13,5,-13,7,-14,9,-15,10,-16,13,-16,15,-17,17,-17,19,-17,22,-18,23,-18,25,-18,26,-19,28,-19,28,-19,28,-19,28,-19,28,-19,28,-19,29,-20,29,-20,7,-5,0,0,0,0,0,0,0,0,0,0,0,0,0,0,0,0,0,0,5,1,19,7,18,7,17,6,17,5,16,4,15,2,14,1,12,-1,11,-2,10,-4,9,-6,7,-8,6,-9,5,-11,4,-12,3,-13,2,-14,1,-15,0,-16,0,-16,-1,-16,-2,-16,-2,-17,-2,-17,-2,-16,-2,-16]",2026-01-09 12:11:18.820,68,20,82.0,19,4470.0,96,0,0,47,0,0,0,17.0,7.0,-929.0
CSI_DATA,51147,60:60:1f:fd:0a:5b,-56,8,0,0,0,0,0,0,0,0,0,-93,0,4,0,497926692,0,67,0,128,1,"[67,48,4,0,24,-8,23,-8,23,-8,22,-7,21,-7,20,-5,19,-4,19,-3,19,-2,18,-1,16,0,15,2,14,5,14,7,13,9,11,11,10,13,8,14,7,13,6,12,4,16,4,20,0,20,-6,20,-8,19,-2,4,0,0,0,0,0,0,0,0,0,0,0,0,0,0,0,0,0,0,1,6,5,24,5,23,4,22,4,21,5,21,6,20,7,19,8,18,9,16,10,14,11,12,13,10,14,8,16,7,17,5,19,3,20,2,21,0,22,-1,23,-3,23,-4,24,-5,25,-6,25,-7,25,-8,25,-9]",2026-01-09 12:11:18.870,68,20,82.0,19,4473.0,99,0,0,50,0,0,0,15.0,-2.0,-942.0
CSI_DATA,51153,60:60:1f:fd:0a:5b,-54,12,0,0,0,0,0,0,0,0,0,-93,0,4,0,497985200,0,67,0,128,1,"[67,48,4,0,30,-7,30,-6,29,-6,28,-5,27,-5,26,-4,25,-3,24,-3,22,-2,21,-1,18,0,16,1,14,2,12,3,9,3,7,4,4,3,2,3,0,3,-3,3,-4,2,-5,1,-7,1,-9,0,-10,-1,-3,-1,0,0,0,0,0,0,0,0,0,0,0,0,0,0,0,0,0,0,5,2,23,11,22,12,22,12,21,13,21,13,21,13,21,12,20,12,20,11,19,10,19,8,20,7,20,5,20,3,21,2,23,0,24,-1,24,-3,25,-4,26,-5,27,-6,28,-7,29,-8,30,-8,30,-8,31,-8]",2026-01-09 12:11:18.929,68,20,82.0,19,4473.0,99,0,0,50,0,0,0,15.0,-2.0,-942.0
CSI_DATA,51158,60:60:1f:fd:0a:5b,-52,12,0,0,0,0,0,0,0,0,0,-93,0,4,0,498036416,0,67,0,128,1,"[67,48,4,0,30,-20,30,-19,30,-18,29,-17,28,-17,27,-16,27,-15,26,-15,25,-13,24,-11,22,-11,21,-10,19,-9,18,-8,17,-7,15,-5,11,-5,8,-5,8,-6,7,-5,5,-5,2,-4,0,-4,-1,-6,1,-7,0,-2,0,0,0,0,0,0,0,0,0,0,0,0,0,0,0,0,0,0,6,-3,24,-11,25,-9,25,-8,25,-7,25,-6,26,-6,26,-6,26,-6,25,-6,25,-6,24,-6,24,-7,23,-8,23,-9,23,-10,23,-12,23,-14,24,-16,24,-17,24,-18,25,-19,26,-21,27,-21,28,-21,28,-22,29,-22]",2026-01-09 12:11:18.980,68,20,82.0,19,4477.0,102,0,0,53,0,0,0,-13.0,4.0,-950.0
CSI_DATA,51163,60:60:1f:fd:0a:5b,-51,12,0,0,0,0,0,0,0,0,0,-93,0,4,0,498090143,0,67,0,128,1,"[67,48,4,0,25,-11,25,-11,25,-11,25,-10,24,-10,23,-10,23,-9,23,-9,22,-9,22,-9,21,-8,20,-8,20,-7,19,-7,18,-7,17,-6,16,-6,15,-6,14,-6,12,-5,11,-5,10,-5,10,-5,9,-6,8,-6,2,-2,0,0,0,0,0,0,0,0,0,0,0,0,0,0,0,0,0,0,4,-3,16,-9,17,-8,17,-7,17,-7,18,-6,19,-6,19,-5,19,-5,19,-5,19,-5,19,-5,19,-5,19,-5,19,-6,19,-7,19,-8,19,-9,20,-9,20,-10,20,-11,21,-11,22,-12,23,-12,23,-12,24,-13,24,-13]",2026-01-09 12:11:19.034,68,20,82.0,19,4477.0,102,0,0,53,0,0,0,-13.0,4.0,-950.0
CSI_DATA,51168,60:60:1f:fd:0a:5b,-50,12,0,0,0,0,0,0,0,0,0,-93,0,4,0,498144060,0,67,0,128,1,"[67,48,4,0,6,-26,6,-26,6,-26,6,-25,6,-25,6,-25,6,-25,6,-25,5,-25,5,-25,5,-24,5,-24,6,-24,6,-23,6,-22,6,-21,6,-20,6,-19,6,-18,6,-17,5,-16,5,-15,4,-14,4,-13,4,-13,0,-4,0,0,0,0,0,0,0,0,0,0,0,0,0,0,0,0,0,0,0,-4,3,-17,4,-17,5,-17,6,-17,7,-17,7,-18,8,-18,8,-17,8,-17,9,-17,8,-18,8,-18,8,-18,8,-18,7,-18,7,-19,6,-20,6,-20,6,-21,6,-22,6,-22,5,-23,5,-24,5,-25,5,-25,5,-26]",2026-01-09 12:11:19.088,68,30,82.0,19,4481.0,104,0,0,57,0,0,0,-6.0,14.0,-966.0
CSI_DATA,51174,60:60:1f:fd:0a:5b,-50,12,0,0,0,0,0,0,0,0,0,-93,0,4,0,498196587,0,67,0,128,1,"[67,48,4,0,25,-6,25,-6,25,-7,24,-7,24,-7,24,-8,24,-9,24,-9,25,-9,25,-9,24,-9,24,-9,25,-8,25,-8,24,-7,23,-6,23,-6,22,-6,21,-5,20,-4,18,-4,17,-3,16,-2,16,-2,16,-2,4,-1,0,0,0,0,0,0,0,0,0,0,0,0,0,0,0,0,0,0,3,-1,15,-3,15,-3,16,-2,16,-1,17,-1,18,0,18,0,18,0,19,1,19,1,19,1,19,1,19,1,19,0,19,0,20,-1,20,-1,20,-2,21,-3,21,-4,21,-4,23,-5,24,-5,24,-5,24,-6,24,-6]",2026-01-09 12:11:19.139,68,30,82.0,19,4481.0,104,0,0,57,0,0,0,-6.0,14.0,-966.0
CSI_DATA,51179,60:60:1f:fd:0a:5b,-50,12,0,0,0,0,0,0,0,0,0,-93,0,4,0,498253469,0,67,0,128,1,"[67,48,4,0,-3,-25,-3,-26,-4,-26,-4,-26,-4,-26,-5,-26,-6,-26,-6,-27,-7,-27,-7,-28,-7,-28,-6,-28,-6,-28,-5,-28,-4,-27,-3,-27,-2,-26,-2,-26,-1,-25,0,-23,0,-22,0,-21,1,-19,1,-18,1,-18,0,-5,0,0,0,0,0,0,0,0,0,0,0,0,0,0,0,0,0,0,-1,-4,-1,-16,0,-16,0,-16,1,-17,2,-17,2,-18,3,-19,3,-19,4,-19,4,-19,4,-19,4,-19,4,-19,3,-19,3,-20,3,-20,2,-21,1,-21,1,-21,0,-22,0,-22,-1,-23,-1,-24,-2,-24,-2,-25,-2,-25]",2026-01-09 12:11:19.198,68,30,82.0,19,4482.0,106,0,0,60,0,0,-1,7.0,3.0,-957.0
CSI_DATA,51184,60:60:1f:fd:0a:5b,-50,12,0,0,0,0,0,0,0,0,0,-93,0,4,0,498309365,0,67,0,128,1,"[67,48,4,0,-15,-17,-15,-17,-16,-17,-17,-16,-17,-16,-17,-15,-18,-15,-19,-16,-21,-16,-21,-16,-21,-16,-20,-16,-20,-17,-20,-18,-20,-18,-19,-18,-17,-19,-15,-18,-14,-17,-13,-16,-11,-18,-9,-17,-7,-14,-8,-13,-9,-15,-3,-4,0,0,0,0,0,0,0,0,0,0,0,0,0,0,0,0,0,0,-2,-3,-8,-13,-7,-13,-7,-14,-7,-15,-7,-15,-7,-16,-7,-17,-6,-17,-6,-17,-6,-17,-6,-18,-6,-18,-6,-18,-6,-17,-7,-18,-8,-18,-8,-18,-9,-18,-9,-17,-10,-17,-11,-17,-12,-17,-13,-18,-13,-17,-14,-17,-14,-18]",2026-01-09 12:11:19.254,68,30,82.0,19,4480.0,107,0,0,63,0,0,-1,22.0,4.0,-961.0
CSI_DATA,51189,60:60:1f:fd:0a:5b,-50,12,0,0,0,0,0,0,0,0,0,-93,0,4,0,498369347,0,67,0,128,1,"[67,48,4,0,2,23,2,23,4,23,4,23,5,23,6,23,7,24,8,24,9,25,9,25,9,26,9,26,8,27,7,27,7,27,6,27,5,26,4,26,2,25,1,24,1,22,0,21,0,20,-1,18,-2,17,-1,4,0,0,0,0,0,0,0,0,0,0,0,0,0,0,0,0,0,0,-1,4,-2,16,-3,16,-4,16,-4,17,-5,17,-6,18,-6,19,-7,19,-7,19,-7,19,-7,20,-7,20,-7,19,-7,19,-7,19,-7,20,-6,20,-5,20,-5,20,-4,21,-3,21,-3,22,-2,23,-1,23,0,22,1,23]",2026-01-09 12:11:19.313,68,30,82.0,19,4480.0,107,0,0,63,0,0,-1,22.0,4.0,-961.0
CSI_DATA,51196,60:60:1f:fd:0a:5b,-50,12,0,0,0,0,0,0,0,0,0,-93,0,4,0,498435751,0,67,0,128,1,"[67,48,4,0,18,7,19,6,20,4,20,3,20,2,21,2,22,1,23,1,24,0,25,0,25,1,25,1,26,2,26,3,25,3,25,4,24,5,23,6,22,7,21,7,19,8,18,8,16,8,15,7,14,7,3,1,0,0,0,0,0,0,0,0,0,0,0,0,0,0,0,0,0,0,3,1,15,7,15,8,15,9,15,10,15,10,16,12,16,12,16,13,16,14,16,15,16,15,16,15,15,15,15,14,15,14,15,14,15,14,15,13,15,13,16,12,16,11,17,11,17,11,17,10,18,9,18,8]",2026-01-09 12:11:19.379,68,30,82.0,19,4485.0,108,0,0,66,0,0,-1,7.0,3.0,-956.0
CSI_DATA,51202,60:60:1f:fd:0a:5b,-51,12,0,0,0,0,0,0,0,0,0,-93,0,4,0,498495003,0,67,0,128,1,"[67,48,4,0,14,11,15,10,16,9,17,7,18,6,19,5,20,5,22,4,23,4,24,4,24,4,24,5,25,5,25,6,25,7,24,7,24,8,23,9,21,9,20,9,18,9,17,9,15,9,14,9,13,9,3,2,0,0,0,0,0,0,0,0,0,0,0,0,0,0,0,0,0,0,3,3,12,14,12,15,11,16,11,16,12,18,12,19,12,20,12,21,12,22,11,23,11,23,10,24,10,23,10,23,9,23,9,23,10,22,10,21,10,20,10,19,11,19,11,18,12,18,12,17,13,15,13,15]",2026-01-09 12:11:19.439,68,30,82.0,19,4485.0,108,0,0,66,0,0,-1,7.0,3.0,-956.0
CSI_DATA,51208,60:60:1f:fd:0a:5b,-51,12,0,0,0,0,0,0,0,0,0,-93,0,4,0,498549947,0,67,0,128,1,"[67,48,4,0,-6,-19,-7,-17,-9,-17,-11,-16,-13,-16,-14,-15,-16,-16,-18,-16,-19,-17,-19,-17,-20,-17,-20,-17,-21,-19,-21,-20,-20,-20,-19,-20,-19,-21,-18,-21,-16,-20,-14,-19,-13,-19,-12,-19,-10,-18,-10,-17,-9,-17,-3,-5,0,0,0,0,0,0,0,0,0,0,0,0,0,0,0,0,0,0,-1,-6,-1,-22,-1,-22,0,-23,0,-24,0,-26,1,-27,1,-29,2,-30,3,-30,5,-30,5,-31,6,-31,7,-30,7,-29,7,-29,7,-28,6,-28,6,-27,5,-26,4,-25,4,-25,2,-25,1,-27,1,-29,-1,-26,-2,-22]",2026-01-09 12:11:19.494,68,30,82.0,20,4480.0,108,0,0,70,0,0,-1,-10.0,12.0,-967.0
CSI_DATA,51214,60:60:1f:fd:0a:5b,-51,12,0,0,0,0,0,0,0,0,0,-93,0,4,0,498608162,0,67,0,128,1,"[67,48,4,0,-14,-8,-14,-6,-15,-4,-16,-3,-16,-1,-17,0,-18,1,-19,2,-21,2,-21,3,-22,3,-23,3,-23,2,-23,2,-23,1,-23,0,-23,0,-22,0,-21,-1,-20,-2,-19,-2,-18,-3,-17,-3,-16,-4,-16,-4,-4,-1,0,0,0,0,0,0,0,0,0,0,0,0,0,0,0,0,0,0,-4,-4,-15,-14,-16,-15,-16,-15,-16,-16,-17,-17,-18,-19,-18,-20,-18,-21,-18,-22,-18,-23,-17,-24,-17,-24,-16,-24,-15,-23,-14,-24,-14,-23,-14,-23,-14,-22,-13,-20,-13,-19,-13,-18,-14,-17,-14,-16,-14,-15,-14,-13,-14,-12]",2026-01-09 12:11:19.553,68,30,82.0,20,4484.0,108,0,0,73,0,0,-1,25.0,10.0,-973.0
CSI_DATA,51221,60:60:1f:fd:0a:5b,-53,12,0,0,0,0,0,0,0,0,0,-93,0,4,0,498664989,0,67,0,128,1,"[67,48,4,0,5,-11,3,-11,2,-12,0,-13,-1,-14,-3,-15,-4,-16,-5,-17,-6,-18,-6,-18,-6,-19,-6,-19,-6,-20,-6,-21,-5,-20,-5,-19,-4,-19,-3,-20,-2,-19,-2,-18,-1,-17,-1,-16,0,-16,0,-15,1,-14,0,-4,0,0,0,0,0,0,0,0,0,0,0,0,0,0,0,0,0,0,3,-3,14,-11,15,-11,16,-12,17,-12,18,-12,19,-13,20,-14,21,-14,23,-13,23,-13,24,-12,24,-11,24,-11,24,-10,23,-10,22,-9,21,-9,21,-9,19,-9,18,-9,17,-9,16,-9,15,-10,13,-10,11,-10,11,-10]",2026-01-09 12:11:19.609,68,30,82.0,20,4484.0,108,0,0,73,0,0,-1,25.0,10.0,-973.0
