type,id,mac,rssi,rate,sig_mode,mcs,bandwidth,smoothing,not_sounding,aggregation,stbc,fec_coding,sgi,noise_floor,ampdu_cnt,channel,secondary_channel,local_timestamp,ant,sig_len,rx_state,len,first_word,data,system_timestamp,tello_battery,tello_height,tello_temperature,tello_flight_time,tello_barometer,tello_tof,tello_pitch,tello_roll,tello_yaw,tello_speed_x,tello_speed_y,tello_speed_z,tello_accel_x,tello_accel_y,tello_accel_z
CSI_DATA,77423,60:60:1f:fd:0a:5b,-61,9,0,0,0,0,0,0,0,0,0,-89,0,4,0,756166791,0,67,0,128,1,"[67,48,4,0,-15,8,-16,9,-17,11,-17,12,-17,15,-17,17,-17,19,-16,20,-15,22,-14,25,-13,28,-12,31,-11,33,-11,32,-10,33,-9,36,-12,39,-13,39,-11,38,-11,39,-13,38,-11,36,-11,34,-14,32,-18,28,-5,6,0,0,0,0,0,0,0,0,0,0,0,0,0,0,0,0,0,0,-3,2,-11,9,-11,9,-12,8,-12,7,-12,6,-12,4,-12,2,-12,1,-11,-1,-10,-3,-9,-4,-7,-5,-6,-6,-5,-6,-4,-6,-4,-6,-4,-6,-3,-6,-3,-6,-4,-5,-4,-4,-5,-3,-7,-2,-8,0,-10,2,-11,3]",2026-01-09 12:15:38.779,0,0,0,0,0.0,0,0,0,0,0,0,0,0.0,0.0,0.0
CSI_DATA,77429,60:60:1f:fd:0a:5b,-60,9,0,0,0,0,0,0,0,0,0,-89,0,4,0,756220252,0,67,0,128,1,"[67,48,4,0,-13,10,-14,11,-14,12,-15,13,-15,15,-14,17,-14,18,-13,19,-12,21,-10,23,-10,25,-9,27,-8,29,-8,30,-8,32,-7,34,-9,34,-10,34,-11,33,-11,33,-10,32,-10,31,-11,30,-12,28,-14,26,-4,6,0,0,0,0,0,0,0,0,0,0,0,0,0,0,0,0,0,0,-2,3,-5,12,-6,11,-7,11,-8,10,-9,10,-10,8,-10,6,-10,4,-10,2,-10,1,-9,-1,-8,-2,-7,-3,-7,-4,-6,-4,-6,-4,-6,-3,-5,-3,-5,-3,-5,-3,-6,-2,-6,-1,-7,0,-8,2,-9,4,-9,5]",2026-01-09 12:15:38.830,0,0,0,0,0.0,0,0,0,0,0,0,0,0.0,0.0,0.0
CSI_DATA,77434,60:60:1f:fd:0a:5b,-60,9,0,0,0,0,0,0,0,0,0,-89,0,4,0,756270575,0,67,0,128,1,"[67,48,4,0,-9,13,-10,14,-10,15,-10,17,-9,18,-9,20,-8,21,-8,22,-6,23,-4,24,-4,26,-3,29,-2,30,-2,31,-2,32,-2,34,-4,36,-6,35,-5,34,-4,34,-6,33,-9,34,-11,33,-12,28,-11,26,-3,6,0,0,0,0,0,0,0,0,0,0,0,0,0,0,0,0,0,0,-2,1,-4,9,0,13,-4,12,-9,13,-6,16,-4,15,-7,12,-8,11,-8,8,-8,5,-8,4,-7,2,-7,1,-6,0,-7,-2,-7,-2,-7,-2,-6,-2,-6,-1,-6,-1,-6,0,-5,1,-6,2,-6,4,-6,6,-6,8]",2026-01-09 12:15:38.894,0,0,0,0,0.0,0,0,0,0,0,0,0,0.0,0.0,0.0
CSI_DATA,77439,60:60:1f:fd:0a:5b,-60,9,0,0,0,0,0,0,0,0,0,-89,0,4,0,756326750,0,67,0,128,1,"[67,48,4,0,4,14,5,15,6,16,7,17,9,18,11,18,12,18,13,18,15,17,17,17,20,17,22,17,24,16,25,17,27,17,28,17,28,18,27,19,27,19,26,19,27,20,28,20,27,20,23,20,19,20,4,5,0,0,0,0,0,0,0,0,0,0,0,0,0,0,0,0,0,0,2,2,8,10,7,10,7,10,6,11,5,11,3,11,2,11,0,10,-2,9,-3,8,-5,7,-5,5,-6,4,-6,3,-6,3,-6,2,-6,2,-6,2,-6,2,-5,2,-4,3,-3,3,-2,5,-1,6,1,8,2,9]",2026-01-09 12:15:38.944,0,0,0,0,0.0,0,0,0,0,0,0,0,0.0,0.0,0.0
CSI_DATA,77442,60:60:1f:fd:0a:5b,-60,9,0,0,0,0,0,0,0,0,0,-89,0,4,0,756347176,0,67,0,128,1,"[67,48,4,0,-8,-14,-9,-15,-10,-16,-12,-16,-14,-16,-15,-16,-17,-16,-19,-16,-20,-15,-22,-14,-25,-13,-27,-12,-29,-12,-30,-12,-32,-12,-33,-12,-34,-13,-33,-14,-33,-15,-33,-15,-33,-15,-32,-14,-31,-14,-28,-16,-26,-17,-7,-5,0,0,0,0,0,0,0,0,0,0,0,0,0,0,0,0,0,0,-3,-3,-11,-10,-10,-10,-10,-10,-9,-11,-8,-11,-6,-11,-4,-11,-2,-11,0,-11,1,-10,2,-8,3,-7,4,-6,4,-5,4,-5,4,-4,4,-4,4,-4,4,-4,3,-4,2,-5,1,-5,0,-6,-1,-7,-3,-8,-4,-9]",2026-01-09 12:15:39.012,0,0,0,0,0.0,0,0,0,0,0,0,0,0.0,0.0,0.0
CSI_DATA,77446,60:60:1f:fd:0a:5b,-60,9,0,0,0,0,0,0,0,0,0,-89,0,4,0,756414929,0,67,0,128,1,"[67,48,4,0,12,4,14,4,15,4,16,4,17,3,18,1,19,1,20,0,21,-2,22,-5,23,-6,24,-7,25,-8,26,-9,27,-10,28,-11,29,-11,29,-10,30,-9,30,-8,30,-9,29,-9,29,-7,27,-5,26,-4,6,-1,0,0,0,0,0,0,0,0,0,0,0,0,0,0,0,0,0,0,3,0,12,0,12,0,11,1,11,2,11,3,10,4,8,5,7,6,5,6,3,7,2,6,1,6,0,6,-1,5,-2,5,-2,4,-2,4,-2,4,-2,4,-1,3,0,3,0,4,1,4,3,3,5,3,7,3]",2026-01-09 12:15:39.096,0,0,0,0,0.0,0,0,0,0,0,0,0,0.0,0.0,0.0
CSI_DATA,77458,60:60:1f:fd:0a:5b,-62,13,0,0,0,0,0,0,0,0,0,-89,0,4,0,756531936,0,67,0,128,1,"[67,48,4,0,-2,-17,-3,-19,-3,-20,-4,-21,-6,-22,-7,-23,-9,-23,-10,-23,-12,-23,-15,-24,-18,-24,-20,-24,-22,-24,-23,-24,-25,-25,-27,-26,-27,-27,-26,-27,-25,-27,-25,-27,-25,-27,-24,-27,-22,-28,-19,-28,-17,-27,-4,-7,0,0,0,0,0,0,0,0,0,0,0,0,0,0,0,0,0,0,-2,-4,-6,-15,-5,-15,-4,-15,-3,-15,-2,-15,0,-15,2,-14,4,-12,5,-11,6,-9,7,-7,7,-5,7,-4,7,-3,6,-2,6,-2,6,-2,5,-2,5,-2,5,-2,4,-3,3,-4,3,-5,2,-7,1,-9,0,-11]",2026-01-09 12:15:39.148,0,0,0,0,0.0,0,0,0,0,0,0,0,0.0,0.0,0.0
CSI_DATA,77461,60:60:1f:fd:0a:5b,-61,13,0,0,0,0,0,0,0,0,0,-89,0,4,0,756557895,0,67,0,128,1,"[67,48,4,0,-5,-15,-6,-16,-7,-17,-8,-18,-10,-18,-11,-19,-13,-18,-14,-18,-16,-17,-19,-17,-21,-17,-23,-17,-25,-16,-26,-16,-28,-16,-30,-16,-30,-17,-29,-19,-29,-19,-28,-19,-28,-19,-28,-19,-26,-19,-24,-19,-21,-19,-5,-5,0,0,0,0,0,0,0,0,0,0,0,0,0,0,0,0,0,0,-2,-4,-8,-13,-7,-13,-6,-13,-5,-13,-4,-13,-2,-13,0,-12,1,-12,3,-10,4,-9,5,-7,5,-6,5,-4,5,-4,5,-3,5,-2,4,-2,4,-2,4,-2,4,-2,3,-3,2,-4,1,-5,0,-6,-1,-8,-2,-9]",2026-01-09 12:15:39.212,0,0,0,0,0.0,0,0,0,0,0,0,0,0.0,0.0,0.0
CSI_DATA,77469,60:60:1f:fd:0a:5b,-61,13,0,0,0,0,0,0,0,0,0,-89,0,4,0,756623839,0,67,0,128,1,"[67,48,4,0,17,0,18,0,19,0,21,-2,22,-3,22,-5,23,-6,23,-7,23,-10,23,-12,24,-15,25,-18,25,-19,25,-20,26,-22,28,-24,29,-24,30,-23,31,-22,31,-22,29,-22,28,-23,28,-22,29,-18,30,-16,7,-4,0,0,0,0,0,0,0,0,0,0,0,0,0,0,0,0,0,0,3,-1,14,-4,15,-3,15,-2,15,-1,14,0,13,2,12,3,11,4,9,6,7,7,5,7,3,7,2,7,1,6,0,6,0,6,0,5,-1,5,0,5,1,4,1,4,2,3,4,3,6,2,8,2,10,1]",2026-01-09 12:15:39.264,0,0,0,0,0.0,0,0,0,0,0,0,0,0.0,0.0,0.0
CSI_DATA,77473,60:60:1f:fd:0a:5b,-60,13,0,0,0,0,0,0,0,0,0,-89,0,4,0,756663732,0,67,0,128,1,"[67,48,4,0,-10,-13,-11,-14,-12,-14,-13,-15,-15,-15,-17,-14,-18,-14,-19,-14,-21,-13,-23,-12,-25,-11,-27,-10,-29,-9,-30,-9,-32,-9,-34,-8,-34,-9,-34,-10,-33,-11,-33,-11,-33,-11,-32,-11,-30,-12,-28,-13,-27,-14,-7,-4,0,0,0,0,0,0,0,0,0,0,0,0,0,0,0,0,0,0,-3,-3,-12,-9,-11,-9,-11,-10,-10,-11,-9,-11,-7,-12,-5,-12,-4,-12,-2,-12,0,-11,2,-9,3,-8,3,-7,4,-6,4,-5,4,-5,4,-5,3,-4,3,-4,3,-4,2,-4,0,-5,-1,-6,-2,-6,-4,-7,-6,-8]",2026-01-09 12:15:39.321,0,0,0,0,0.0,0,0,0,0,0,0,0,0.0,0.0,0.0
CSI_DATA,77476,60:60:1f:fd:0a:5b,-62,13,0,0,0,0,0,0,0,0,0,-89,0,4,0,756687813,0,67,0,128,1,"[67,48,4,0,-14,-11,-16,-11,-17,-11,-18,-11,-20,-11,-22,-10,-23,-10,-24,-9,-25,-7,-27,-5,-29,-4,-31,-2,-32,-1,-33,0,-35,1,-37,1,-37,0,-37,-1,-38,-1,-38,-2,-39,-1,-37,-1,-35,-3,-32,-5,-29,-6,-7,-2,0,0,0,0,0,0,0,0,0,0,0,0,0,0,0,0,0,0,-4,-2,-15,-6,-14,-7,-14,-7,-14,-8,-13,-9,-11,-10,-9,-11,-7,-12,-5,-12,-3,-12,-2,-11,-1,-10,0,-9,1,-8,1,-7,2,-7,2,-7,3,-6,2,-4,1,-4,0,-5,-1,-7,-1,-9,-3,-9,-5,-9,-8,-9]",2026-01-09 12:15:39.383,0,0,0,0,0.0,0,0,0,0,0,0,0,0.0,0.0,0.0
CSI_DATA,77493,60:60:1f:fd:0a:5b,-62,9,0,0,0,0,0,0,0,0,0,-89,0,4,0,756841680,0,67,0,128,1,"[67,48,4,0,6,15,7,17,8,18,9,18,10,19,11,20,12,20,13,20,16,20,18,19,20,19,22,19,24,19,25,20,27,21,28,21,28,22,28,23,28,24,28,24,27,24,26,24,25,24,22,23,19,23,4,5,0,0,0,0,0,0,0,0,0,0,0,0,0,0,0,0,0,0,3,2,12,10,12,10,10,11,9,12,8,13,7,13,5,13,3,13,1,12,-1,11,-2,9,-3,8,-3,6,-3,4,-3,5,-2,5,-1,0,-2,-1,-3,2,-3,3,-2,3,-1,4,0,5,2,7,3,8,3,9]",2026-01-09 12:15:39.442,0,0,0,0,0.0,0,0,0,0,0,0,0,0.0,0.0,0.0
CSI_DATA,77497,60:60:1f:fd:0a:5b,-61,9,0,0,0,0,0,0,0,0,0,-89,0,4,0,756887786,0,67,0,128,1,"[67,48,4,0,-10,12,-11,13,-11,14,-11,15,-11,17,-10,19,-10,20,-9,21,-7,22,-6,24,-4,26,-3,28,-2,29,-2,30,-1,31,0,33,-1,34,-1,34,-2,34,-3,34,-3,33,-2,33,-2,31,-4,29,-7,30,-2,7,0,0,0,0,0,0,0,0,0,0,0,0,0,0,0,0,0,0,-2,3,-8,14,-8,14,-9,13,-10,12,-10,11,-11,9,-11,7,-11,6,-11,4,-11,2,-9,1,-8,0,-8,-2,-7,-2,-6,-2,-5,-2,-4,-2,-4,-2,-4,-2,-4,-1,-5,-1,-5,1,-5,2,-5,4,-6,6,-7,7]",2026-01-09 12:15:39.534,0,0,0,0,0.0,0,0,0,0,0,0,0,0.0,0.0,0.0
CSI_DATA,77501,60:60:1f:fd:0a:5b,-61,9,0,0,0,0,0,0,0,0,0,-89,0,4,0,756918482,0,67,0,128,1,"[67,48,4,0,13,11,14,12,15,12,17,13,18,13,20,12,21,12,23,11,24,10,26,8,28,7,30,5,32,5,33,4,35,4,37,3,37,4,37,5,37,6,37,7,37,6,36,6,35,7,33,9,31,10,7,2,0,0,0,0,0,0,0,0,0,0,0,0,0,0,0,0,0,0,3,1,15,6,15,7,14,8,13,9,12,10,10,11,8,11,6,11,4,11,2,10,0,9,-1,8,-2,7,-2,5,-3,5,-3,4,-3,4,-3,4,-3,3,-2,3,-1,3,1,4,2,4,4,5,6,6,7,7]",2026-01-09 12:15:39.594,0,0,0,0,0.0,0,0,0,0,0,0,0,0.0,0.0,0.0
CSI_DATA,77509,60:60:1f:fd:0a:5b,-60,9,0,0,0,0,0,0,0,0,0,-89,0,4,0,757027782,0,67,0,128,1,"[67,48,4,0,13,8,14,9,15,9,16,9,18,8,20,7,21,7,22,6,23,4,24,2,26,1,28,-1,29,-2,30,-2,32,-3,34,-4,35,-3,35,-2,35,-2,34,-2,34,-2,33,-1,32,0,31,1,29,2,7,0,0,0,0,0,0,0,0,0,0,0,0,0,0,0,0,0,0,0,3,0,14,3,14,4,13,5,13,6,12,7,10,8,8,8,7,9,5,9,3,9,1,8,0,7,-2,6,-2,5,-3,5,-3,4,-3,4,-3,4,-3,4,-2,4,-1,3,1,3,2,4,4,5,6,5,7,6]",2026-01-09 12:15:39.647,0,0,0,0,0.0,0,0,0,0,0,0,0,0.0,0.0,0.0
CSI_DATA,77518,60:60:1f:fd:0a:5b,-62,14,0,0,0,0,0,0,0,0,0,-89,0,4,0,757104352,0,67,0,128,1,"[67,48,4,0,-10,-15,-11,-16,-11,-17,-13,-18,-14,-18,-16,-18,-18,-18,-19,-18,-21,-17,-23,-16,-26,-15,-29,-14,-31,-13,-33,-13,-35,-12,-37,-13,-37,-14,-36,-16,-35,-16,-35,-17,-35,-16,-35,-15,-33,-15,-30,-16,-28,-17,-7,-5,0,0,0,0,0,0,0,0,0,0,0,0,0,0,0,0,0,0,-4,-3,-13,-12,-12,-12,-11,-13,-10,-13,-9,-14,-7,-14,-5,-14,-3,-13,-1,-12,1,-11,2,-10,2,-9,3,-7,4,-6,4,-5,3,-4,3,-4,3,-4,3,-4,2,-4,1,-4,0,-5,-1,-5,-2,-7,-4,-9,-5,-11]",2026-01-09 12:15:39.706,0,0,0,0,0.0,0,0,0,0,0,0,0,0.0,0.0,0.0
CSI_DATA,77524,60:60:1f:fd:0a:5b,-60,14,0,0,0,0,0,0,0,0,0,-89,0,4,0,757159170,0,67,0,128,1,"[67,48,4,0,0,-17,-1,-18,-1,-19,-1,-20,-3,-21,-4,-22,-5,-23,-7,-24,-8,-24,-12,-23,-15,-24,-16,-26,-17,-26,-17,-26,-19,-29,-21,-31,-21,-30,-21,-30,-21,-30,-19,-30,-19,-30,-18,-30,-16,-29,-14,-27,-11,-27,-3,-7,0,0,0,0,0,0,0,0,0,0,0,0,0,0,0,0,0,0,-2,-4,-6,-14,-6,-15,-5,-15,-4,-15,-2,-15,0,-14,1,-13,3,-12,4,-10,5,-9,5,-7,5,-6,5,-4,5,-4,5,-3,5,-3,4,-2,5,-2,5,-2,4,-2,3,-3,3,-4,2,-7,1,-9,0,-10,0,-11]",2026-01-09 12:15:39.760,0,0,0,0,0.0,0,0,0,0,0,0,0,0.0,0.0,0.0
CSI_DATA,77527,60:60:1f:fd:0a:5b,-62,14,0,0,0,0,0,0,0,0,0,-89,0,4,0,757195237,0,67,0,128,1,"[67,48,4,0,-12,13,-13,14,-14,15,-14,16,-13,19,-13,20,-13,21,-12,22,-10,23,-8,26,-8,29,-7,31,-6,33,-6,34,-5,36,-3,38,-4,38,-5,38,-7,37,-7,36,-6,37,-5,36,-7,34,-9,30,-11,27,-3,6,0,0,0,0,0,0,0,0,0,0,0,0,0,0,0,0,0,0,-2,3,-8,13,-8,13,-9,12,-10,12,-11,11,-11,10,-12,8,-12,6,-12,3,-11,1,-10,0,-9,-1,-8,-2,-7,-3,-6,-3,-5,-3,-5,-3,-4,-3,-5,-3,-5,-2,-5,-1,-5,0,-6,2,-8,5,-8,7,-8,7]",2026-01-09 12:15:39.842,0,0,0,0,0.0,0,0,0,0,0,0,0,0.0,0.0,0.0
CSI_DATA,77538,60:60:1f:fd:0a:5b,-62,14,0,0,0,0,0,0,0,0,0,-89,0,4,0,757294757,0,67,0,128,1,"[67,48,4,0,5,-17,5,-18,5,-19,5,-20,3,-22,2,-24,1,-25,0,-26,-2,-27,-4,-28,-6,-30,-8,-31,-10,-31,-11,-32,-13,-34,-16,-36,-16,-37,-12,-36,-11,-36,-11,-37,-9,-36,-9,-35,-9,-34,-5,-30,-2,-30,-1,-8,0,0,0,0,0,0,0,0,0,0,0,0,0,0,0,0,0,0,0,-5,0,-17,1,-16,2,-16,3,-15,4,-14,5,-13,6,-12,7,-10,8,-8,8,-6,7,-4,7,-2,6,-1,6,0,5,0,5,1,4,1,4,1,4,1,4,0,4,-1,4,-2,4,-4,4,-6,4,-9,4,-10]",2026-01-09 12:15:39.895,0,0,0,0,0.0,0,0,0,0,0,0,0,0.0,0.0,0.0
CSI_DATA,77541,60:60:1f:fd:0a:5b,-62,10,0,0,0,0,0,0,0,0,0,-89,0,4,0,757325326,0,67,0,128,1,"[67,48,4,0,-8,15,-8,16,-8,17,-7,19,-7,21,-6,22,-5,23,-4,23,-2,24,-1,26,0,29,2,30,4,31,4,32,6,34,7,35,5,36,3,35,3,36,5,38,6,39,5,38,4,36,2,33,-1,30,-1,7,0,0,0,0,0,0,0,0,0,0,0,0,0,0,0,0,0,0,0,4,-1,16,-1,15,-2,15,-4,14,-5,13,-6,12,-7,11,-8,9,-8,7,-9,5,-8,3,-8,2,-7,0,-7,-1,-6,-1,-6,-2,-6,-2,-5,-2,-5,-2,-5,-1,-5,0,-5,2,-5,3,-6,5,-6,7,-6,9]",2026-01-09 12:15:39.959,0,0,0,0,0.0,0,0,0,0,0,0,0,0.0,0.0,0.0
CSI_DATA,77549,60:60:1f:fd:0a:5b,-61,10,0,0,0,0,0,0,0,0,0,-89,0,4,0,757411746,0,67,0,128,1,"[67,48,4,0,8,-15,8,-17,8,-18,8,-20,8,-22,7,-23,6,-24,6,-25,5,-26,3,-29,2,-31,0,-32,-1,-33,-2,-35,-4,-38,-4,-40,-2,-40,0,-39,1,-39,1,-40,1,-40,3,-39,4,-36,3,-34,3,-34,0,-9,0,0,0,0,0,0,0,0,0,0,0,0,0,0,0,0,0,0,-1,-4,-2,-16,-1,-16,0,-16,1,-16,3,-14,5,-13,6,-12,7,-10,8,-8,8,-6,7,-4,7,-2,7,-1,7,0,6,1,5,1,5,1,5,1,5,1,5,0,5,-1,4,-2,4,-3,6,-5,6,-7,6,-9]",2026-01-09 12:15:40.012,0,0,0,0,0.0,0,0,0,0,0,0,0,0.0,0.0,0.0
CSI_DATA,77556,60:60:1f:fd:0a:5b,-59,10,0,0,0,0,0,0,0,0,0,-89,0,4,0,757469726,0,67,0,128,1,"[67,48,4,0,12,10,13,10,15,10,17,10,18,11,20,9,20,8,21,7,28,2,31,0,30,3,31,3,32,2,33,3,35,3,35,-1,37,-2,38,1,35,2,32,3,32,3,33,2,32,1,30,4,27,6,6,1,0,0,0,0,0,0,0,0,0,0,0,0,0,0,0,0,0,0,3,0,13,4,13,4,13,5,12,6,11,8,10,8,8,9,6,9,4,10,2,9,0,8,-1,7,-2,6,-3,6,-3,5,-3,5,-4,4,-3,4,-3,4,-2,4,-1,4,0,4,1,5,3,6,5,6,6,7]",2026-01-09 12:15:40.108,0,0,0,0,0.0,0,0,0,0,0,0,0,0.0,0.0,0.0
CSI_DATA,77560,60:60:1f:fd:0a:5b,-62,10,0,0,0,0,0,0,0,0,0,-89,0,4,0,757517289,0,67,0,128,1,"[67,48,4,0,17,-3,18,-3,19,-3,21,-5,22,-7,22,-9,22,-10,23,-11,23,-13,23,-16,24,-18,24,-20,24,-22,24,-24,25,-25,26,-26,28,-27,28,-27,27,-27,28,-26,28,-26,28,-24,28,-22,28,-20,27,-18,6,-5,0,0,0,0,0,0,0,0,0,0,0,0,0,0,0,0,0,0,3,-3,12,-9,12,-9,13,-8,13,-7,14,-5,13,-3,13,-1,12,1,11,2,9,4,7,5,6,5,4,5,3,5,3,5,2,5,2,5,1,5,2,4,2,4,3,3,4,2,5,2,7,1,9,0,11,0]",2026-01-09 12:15:40.177,0,0,0,0,0.0,0,0,0,0,0,0,0,0.0,0.0,0.0
CSI_DATA,77569,60:60:1f:fd:0a:5b,-60,9,0,0,0,0,0,0,0,0,0,-89,0,4,0,757620417,0,67,0,128,1,"[67,48,4,0,-15,4,-16,5,-17,6,-18,7,-19,9,-19,11,-19,12,-19,14,-18,16,-17,19,-17,21,-17,23,-17,25,-18,26,-19,29,-18,29,-17,27,-19,28,-21,29,-21,28,-20,26,-19,26,-18,26,-18,24,-20,20,-5,4,0,0,0,0,0,0,0,0,0,0,0,0,0,0,0,0,0,0,-3,2,-13,8,-13,7,-14,6,-14,5,-14,4,-13,2,-12,1,-12,-1,-10,-2,-9,-3,-7,-4,-6,-5,-5,-5,-4,-5,-3,-5,-2,-5,-2,-5,-2,-4,-2,-4,-2,-4,-3,-3,-6,-4,-9,-6,-7,-3,-7,0,-8,1]",2026-01-09 12:15:40.278,0,0,0,0,0.0,0,0,0,0,0,0,0,0.0,0.0,0.0
CSI_DATA,77582,60:60:1f:fd:0a:5b,-60,9,0,0,0,0,0,0,0,0,0,-89,0,4,0,757740492,0,67,0,128,1,"[67,48,4,0,-4,-16,-5,-17,-5,-18,-6,-19,-8,-20,-9,-20,-11,-21,-12,-21,-14,-21,-16,-21,-19,-21,-21,-21,-23,-21,-23,-22,-24,-24,-27,-24,-28,-24,-27,-25,-26,-25,-26,-25,-26,-25,-25,-24,-23,-24,-21,-24,-19,-25,-5,-7,0,0,0,0,0,0,0,0,0,0,0,0,0,0,0,0,0,0,-3,-3,-9,-12,-9,-12,-8,-13,-7,-13,-6,-13,-4,-13,-2,-13,0,-12,1,-11,2,-9,3,-8,4,-6,4,-5,4,-4,4,-3,4,-3,4,-2,4,-2,4,-2,3,-3,3,-3,2,-4,1,-6,0,-7,-1,-9,-2,-10]",2026-01-09 12:15:40.341,0,0,0,0,0.0,0,0,0,0,0,0,0,0.0,0.0,0.0
CSI_DATA,77588,60:60:1f:fd:0a:5b,-61,9,0,0,0,0,0,0,0,0,0,-89,0,4,0,757795891,0,67,0,128,1,"[67,48,4,0,-16,-3,-17,-3,-18,-3,-20,-3,-21,-2,-22,-1,-23,0,-24,1,-25,2,-26,4,-27,7,-28,9,-29,10,-29,12,-30,14,-33,14,-33,12,-32,10,-33,9,-34,10,-33,11,-31,11,-30,8,-30,5,-31,4,-8,1,0,0,0,0,0,0,0,0,0,0,0,0,0,0,0,0,0,0,-4,1,-14,5,-14,4,-14,3,-14,2,-14,1,-13,-1,-13,-2,-11,-4,-9,-5,-8,-6,-6,-6,-4,-6,-3,-6,-2,-6,-1,-5,-1,-5,-1,-5,0,-5,0,-5,-1,-4,-2,-4,-3,-4,-5,-3,-6,-3,-8,-3,-10,-3]",2026-01-09 12:15:40.396,0,0,0,0,0.0,0,0,0,0,0,0,0,0.0,0.0,0.0
CSI_DATA,77593,60:60:1f:fd:0a:5b,-60,9,0,0,0,0,0,0,0,0,0,-89,0,4,0,757841747,0,67,0,128,1,"[67,48,4,0,-10,-12,-11,-13,-12,-13,-14,-14,-16,-14,-18,-14,-19,-14,-20,-13,-21,-12,-24,-10,-26,-9,-28,-8,-30,-7,-31,-7,-33,-7,-34,-7,-34,-8,-34,-8,-34,-8,-34,-7,-34,-6,-34,-7,-32,-8,-29,-11,-27,-13,-7,-4,0,0,0,0,0,0,0,0,0,0,0,0,0,0,0,0,0,0,-3,-2,-12,-8,-12,-8,-12,-8,-11,-9,-10,-11,-8,-11,-6,-11,-5,-11,-3,-10,-1,-9,0,-8,1,-7,2,-6,3,-5,3,-4,2,-4,2,-4,3,-4,3,-3,2,-3,1,-4,0,-4,-1,-5,-3,-6,-4,-7,-5,-8]",2026-01-09 12:15:40.466,0,0,0,0,0.0,0,0,0,0,0,0,0,0.0,0.0,0.0
CSI_DATA,77596,60:60:1f:fd:0a:5b,-60,14,0,0,0,0,0,0,0,0,0,-89,0,4,0,757860734,0,67,0,128,1,"[67,48,4,0,-14,8,-15,9,-15,10,-16,12,-16,14,-16,15,-15,16,-15,18,-14,19,-13,21,-13,24,-12,26,-11,27,-11,29,-11,31,-11,33,-12,33,-13,32,-14,32,-13,32,-13,31,-13,30,-14,28,-15,26,-16,25,-4,6,0,0,0,0,0,0,0,0,0,0,0,0,0,0,0,0,0,0,-2,3,-8,12,-8,12,-9,11,-10,10,-11,9,-11,7,-11,6,-11,4,-10,2,-10,0,-9,-1,-8,-2,-6,-3,-6,-4,-5,-4,-5,-4,-4,-4,-4,-4,-4,-4,-4,-3,-5,-2,-5,-1,-6,0,-7,1,-8,3,-9,4]",2026-01-09 12:15:40.519,0,0,0,0,0.0,0,0,0,0,0,0,0,0.0,0.0,0.0
CSI_DATA,77600,60:60:1f:fd:0a:5b,-61,14,0,0,0,0,0,0,0,0,0,-89,0,4,0,757899489,0,67,0,128,1,"[67,48,4,0,-13,-8,-14,-9,-15,-9,-16,-8,-18,-8,-19,-8,-20,-8,-21,-8,-22,-6,-23,-4,-25,-1,-27,1,-29,1,-28,2,-28,3,-32,3,-34,2,-35,-1,-36,0,-36,0,-34,-4,-33,-5,-31,-1,-27,-1,-26,-6,-7,-3,0,0,0,0,0,0,0,0,0,0,0,0,0,0,0,0,0,0,-4,-1,-13,-2,-13,-2,-13,-3,-13,-4,-13,-5,-11,-6,-10,-7,-8,-7,-7,-8,-5,-8,-3,-7,-2,-6,0,-6,0,-6,0,-5,0,-5,1,-4,1,-4,1,-4,0,-4,-1,-4,-2,-4,-3,-5,-4,-5,-6,-5,-7,-6]",2026-01-09 12:15:40.618,0,0,0,0,0.0,0,0,0,0,0,0,0,0.0,0.0,0.0
CSI_DATA,77616,60:60:1f:fd:0a:5b,-61,9,0,0,0,0,0,0,0,0,0,-89,0,4,0,758059844,0,67,0,128,1,"[67,48,4,0,-13,-9,-14,-10,-15,-11,-16,-11,-18,-11,-20,-10,-21,-10,-22,-9,-23,-8,-25,-7,-27,-5,-29,-5,-30,-4,-31,-3,-33,-3,-35,-3,-36,-3,-35,-4,-35,-5,-35,-5,-36,-5,-34,-5,-31,-7,-29,-9,-29,-9,-8,-2,0,0,0,0,0,0,0,0,0,0,0,0,0,0,0,0,0,0,-4,-1,-15,-2,-15,-3,-15,-3,-15,-4,-13,-6,-12,-7,-10,-8,-9,-8,-7,-8,-5,-8,-3,-7,-2,-6,-1,-5,0,-5,1,-4,1,-4,1,-4,1,-3,1,-3,0,-3,0,-3,-1,-4,-2,-3,-4,-3,-6,-6,-8,-7]",2026-01-09 12:15:40.668,0,0,0,0,0.0,0,0,0,0,0,0,0,0.0,0.0,0.0
CSI_DATA,77620,60:60:1f:fd:0a:5b,-62,9,0,0,0,0,0,0,0,0,0,-89,0,4,0,758119686,0,67,0,128,1,"[67,48,4,0,12,11,13,12,14,12,16,12,19,12,21,12,22,11,24,10,26,9,28,7,29,7,30,6,32,5,33,4,35,4,38,3,39,4,39,5,38,5,37,6,36,5,36,5,35,7,33,10,32,12,8,3,0,0,0,0,0,0,0,0,0,0,0,0,0,0,0,0,0,0,3,1,15,7,15,7,14,7,14,8,13,9,11,10,9,10,7,10,5,9,3,9,1,7,0,6,0,5,-1,4,-1,2,-2,2,-2,3,-3,2,-3,1,-2,1,-1,1,1,2,2,4,4,4,6,5,8,6]",2026-01-09 12:15:40.722,0,0,0,0,0.0,0,0,0,0,0,0,0,0.0,0.0,0.0
CSI_DATA,77623,60:60:1f:fd:0a:5b,-60,9,0,0,0,0,0,0,0,0,0,-89,0,4,0,758151895,0,67,0,128,1,"[67,48,4,0,-15,-1,-17,-1,-18,-2,-19,-1,-20,-1,-22,0,-23,1,-24,1,-25,2,-26,4,-28,5,-29,7,-30,7,-31,7,-33,8,-34,9,-35,9,-36,8,-35,5,-37,3,-39,5,-35,5,-30,-1,-28,-4,-30,2,-8,1,0,0,0,0,0,0,0,0,0,0,0,0,0,0,0,0,0,0,-3,3,-10,13,-10,12,-11,11,-12,9,-12,8,-12,6,-12,4,-12,2,-11,1,-9,-1,-8,-2,-6,-3,-5,-3,-3,-3,-2,-3,-2,-3,-1,-3,-1,-3,-1,-3,-1,-2,-2,-1,-4,0,-5,3,-4,4,-7,-1,-10,-2]",2026-01-09 12:15:40.775,0,0,0,0,0.0,0,0,0,0,0,0,0,0.0,0.0,0.0
CSI_DATA,77629,60:60:1f:fd:0a:5b,-60,10,0,0,0,0,0,0,0,0,0,-89,0,4,0,758225082,0,67,0,128,1,"[67,48,4,0,6,-16,6,-18,4,-16,1,-7,0,-8,-1,-21,2,-25,3,-26,0,-27,-2,-29,-4,-30,-6,-32,-8,-33,-10,-34,-12,-36,-13,-38,-13,-39,-12,-39,-12,-39,-11,-39,-10,-38,-10,-36,-10,-36,-9,-36,-6,-35,-2,-9,0,0,0,0,0,0,0,0,0,0,0,0,0,0,0,0,0,0,0,-5,1,-17,2,-17,3,-17,4,-17,5,-16,6,-14,7,-13,7,-11,7,-9,7,-7,6,-5,5,-3,4,-2,4,-1,3,0,2,0,2,0,2,0,2,0,2,-1,2,-1,3,-3,3,-4,3,-6,4,-8,5,-10]",2026-01-09 12:15:40.825,0,0,0,0,0.0,0,0,0,0,0,0,0,0.0,0.0,0.0
CSI_DATA,77633,60:60:1f:fd:0a:5b,-61,9,0,0,0,0,0,0,0,0,0,-89,0,4,0,758267724,0,67,0,128,1,"[67,48,4,0,14,5,15,5,16,5,18,5,19,4,21,3,22,2,23,1,24,0,25,-3,26,-5,27,-6,29,-7,30,-8,31,-8,33,-10,34,-9,34,-9,34,-9,34,-8,34,-8,33,-8,31,-6,30,-3,30,-2,7,-1,0,0,0,0,0,0,0,0,0,0,0,0,0,0,0,0,0,0,3,-1,14,-2,15,-1,15,0,15,0,15,1,13,3,12,4,10,5,8,5,6,5,5,5,3,4,2,4,1,4,0,3,0,3,-1,2,-1,2,0,2,0,2,1,2,2,2,3,2,5,2,7,2,8,3]",2026-01-09 12:15:40.879,0,0,0,0,0.0,0,0,0,0,0,0,0,0.0,0.0,0.0
CSI_DATA,77636,60:60:1f:fd:0a:5b,-60,9,0,0,0,0,0,0,0,0,0,-89,0,4,0,758290483,0,67,0,128,1,"[67,48,4,0,-15,-2,-17,-2,-18,-3,-20,-2,-21,-1,-22,1,-23,2,-24,3,-25,5,-25,6,-26,8,-27,11,-28,13,-29,14,-31,17,-32,18,-33,17,-34,16,-35,16,-35,15,-32,14,-30,15,-30,13,-32,9,-32,8,-8,2,0,0,0,0,0,0,0,0,0,0,0,0,0,0,0,0,0,0,-4,0,-16,3,-16,2,-16,1,-16,0,-15,-1,-15,-2,-13,-3,-12,-4,-10,-5,-8,-5,-6,-5,-5,-5,-4,-4,-3,-4,-2,-4,-1,-3,-1,-3,-1,-3,-1,-3,-1,-2,-2,-2,-3,-2,-4,-2,-6,-2,-8,-1,-9,-1]",2026-01-09 12:15:40.932,0,0,0,0,0.0,0,0,0,0,0,0,0,0.0,0.0,0.0
CSI_DATA,77644,60:60:1f:fd:0a:5b,-62,14,0,0,0,0,0,0,0,0,0,-89,0,4,0,758382535,0,67,0,128,1,"[67,48,4,0,-11,12,-12,13,-13,14,-14,15,-14,17,-13,19,-13,20,-12,21,-11,23,-10,25,-10,28,-9,30,-8,31,-8,32,-8,34,-8,35,-9,35,-10,35,-11,35,-11,33,-10,33,-10,35,-12,34,-13,32,-13,30,-4,7,0,0,0,0,0,0,0,0,0,0,0,0,0,0,0,0,0,0,-1,4,-3,16,-3,15,-4,15,-5,15,-6,14,-7,13,-8,11,-8,9,-8,7,-8,5,-7,4,-6,2,-5,1,-4,0,-3,0,-3,-1,-3,-1,-2,-1,-2,-1,-2,0,-2,1,-3,2,-3,3,-4,4,-6,6,-7,7]",2026-01-09 12:15:40.983,0,0,0,0,0.0,0,0,0,0,0,0,0,0.0,0.0,0.0
CSI_DATA,77648,60:60:1f:fd:0a:5b,-61,10,0,0,0,0,0,0,0,0,0,-89,0,4,0,758419602,0,67,0,128,1,"[67,48,4,0,2,-14,3,-16,3,-17,2,-18,1,-20,0,-21,0,-22,-1,-23,-3,-23,-6,-24,-8,-28,-11,-30,-12,-31,-12,-32,-12,-32,-14,-29,-16,-28,-15,-34,-10,-39,-9,-38,-12,-35,-14,-30,-10,-26,-5,-26,-4,-27,-1,-7,0,0,0,0,0,0,0,0,0,0,0,0,0,0,0,0,0,0,-1,-4,-2,-16,-2,-16,-1,-16,0,-16,1,-15,2,-14,3,-12,4,-11,4,-9,4,-7,4,-5,3,-4,3,-3,2,-2,2,-1,1,-1,1,0,0,0,0,0,0,0,0,-1,1,-3,1,-4,0,-6,0,-8,0,-9]",2026-01-09 12:15:41.035,0,0,0,0,0.0,0,0,0,0,0,0,0,0.0,0.0,0.0
CSI_DATA,77652,60:60:1f:fd:0a:5b,-62,9,0,0,0,0,0,0,0,0,0,-89,0,4,0,758453022,0,67,0,128,1,"[67,48,4,0,-11,-11,-13,-12,-14,-13,-15,-14,-17,-14,-19,-13,-21,-13,-22,-13,-24,-12,-26,-11,-28,-10,-29,-9,-31,-7,-33,-6,-35,-6,-36,-6,-37,-6,-38,-6,-38,-7,-38,-6,-36,-6,-34,-8,-34,-11,-33,-12,-31,-14,-8,-4,0,0,0,0,0,0,0,0,0,0,0,0,0,0,0,0,0,0,-4,-2,-15,-8,-15,-8,-15,-8,-15,-9,-14,-10,-11,-10,-9,-10,-7,-10,-5,-10,-4,-9,-3,-7,-1,-6,0,-5,0,-4,1,-3,1,-2,1,-2,1,-2,1,-2,0,-2,0,-2,-1,-3,-2,-3,-3,-4,-5,-5,-6,-7]",2026-01-09 12:15:41.087,0,0,0,0,0.0,0,0,0,0,0,0,0,0.0,0.0,0.0
CSI_DATA,77656,60:60:1f:fd:0a:5b,-60,9,0,0,0,0,0,0,0,0,0,-89,0,4,0,758488106,0,67,0,128,1,"[67,48,4,0,-12,8,-13,10,-13,11,-14,13,-14,15,-14,17,-14,19,-15,20,-14,20,-15,21,-13,23,-10,25,-8,28,-8,32,-8,34,-7,37,-7,38,-8,33,-6,32,-5,35,-6,34,-10,29,-14,26,-15,26,-14,25,-4,6,0,0,0,0,0,0,0,0,0,0,0,0,0,0,0,0,0,0,-3,3,-10,13,-11,12,-12,10,-12,9,-12,9,-12,7,-12,5,-11,4,-10,3,-9,1,-8,1,-6,0,-5,-1,-4,-1,-3,-1,-3,-2,-2,-2,-2,-2,-2,-2,-2,-1,-3,0,-3,1,-4,1,-6,3,-6,4,-7,5]",2026-01-09 12:15:41.137,0,0,0,0,0.0,0,0,0,0,0,0,0,0.0,0.0,0.0
CSI_DATA,77659,60:60:1f:fd:0a:5b,-61,10,0,0,0,0,0,0,0,0,0,-89,0,4,0,758522711,0,67,0,128,1,"[67,48,4,0,13,3,15,3,17,3,19,2,20,1,22,-1,23,-2,23,-4,24,-5,26,-6,27,-7,28,-10,27,-13,28,-15,29,-17,28,-18,28,-17,30,-17,33,-16,35,-12,34,-10,32,-15,27,-17,27,-8,36,0,10,0,0,0,0,0,0,0,0,0,0,0,0,0,0,0,0,0,0,0,3,-1,14,-1,18,-3,22,-6,18,-2,12,1,8,1,8,3,10,5,9,6,6,5,4,4,2,4,1,4,1,3,0,2,-1,1,-1,1,-1,2,-1,2,-1,2,0,1,1,1,3,-2,5,-5,7,-3,8,1]",2026-01-09 12:15:41.191,0,0,0,0,0.0,0,0,0,0,0,0,0,0.0,0.0,0.0
CSI_DATA,77662,60:60:1f:fd:0a:5b,-62,9,0,0,0,0,0,0,0,0,0,-89,0,4,0,758549742,0,67,0,128,1,"[67,48,4,0,9,-13,9,-15,10,-16,10,-17,9,-19,8,-21,7,-22,6,-24,4,-26,2,-27,0,-29,-3,-31,-5,-32,-6,-33,-8,-35,-9,-37,-9,-38,-8,-38,-8,-38,-8,-37,-9,-37,-10,-36,-9,-35,-7,-34,-5,-33,-2,-9,0,0,0,0,0,0,0,0,0,0,0,0,0,0,0,0,0,0,2,-4,9,-14,10,-14,10,-13,11,-12,11,-11,11,-10,11,-8,10,-6,9,-5,8,-3,6,-2,5,-1,4,0,4,1,2,2,0,-2,5,-5,9,1,4,3,1,0,1,-1,2,-2,3,-3,4,-5,5,-6,5,-8]",2026-01-09 12:15:41.243,0,0,0,0,0.0,0,0,0,0,0,0,0,0.0,0.0,0.0
CSI_DATA,77676,60:60:1f:fd:0a:5b,-62,9,0,0,0,0,0,0,0,0,0,-89,0,4,0,758693451,0,67,0,128,1,"[67,48,4,0,6,-13,7,-15,7,-16,8,-18,7,-20,7,-22,6,-23,5,-24,4,-25,1,-27,-1,-29,-3,-30,-4,-33,-5,-35,-6,-35,-6,-36,-5,-37,-2,-38,0,-38,-1,-39,-4,-39,-4,-38,-4,-35,-1,-33,2,-34,0,-9,0,0,0,0,0,0,0,0,0,0,0,0,0,0,0,0,0,0,0,-5,3,-17,3,-17,4,-16,5,-16,6,-15,6,-14,7,-12,7,-10,7,-8,6,-6,5,-4,4,-3,3,-2,3,-1,2,-1,1,0,1,0,1,0,1,0,1,0,1,-1,1,-2,1,-3,1,-5,3,-6,4,-8]",2026-01-09 12:15:41.294,0,0,0,0,0.0,0,0,0,0,0,0,0,0.0,0.0,0.0
CSI_DATA,77681,60:60:1f:fd:0a:5b,-62,10,0,0,0,0,0,0,0,0,0,-89,0,4,0,758734349,0,67,0,128,1,"[67,48,4,0,-12,-10,-13,-11,-14,-11,-16,-12,-17,-12,-19,-12,-21,-11,-22,-10,-23,-9,-25,-8,-28,-7,-30,-6,-32,-4,-33,-4,-35,-4,-37,-3,-37,-3,-37,-5,-38,-6,-38,-6,-37,-5,-36,-4,-35,-5,-35,-8,-33,-10,-9,-3,0,0,0,0,0,0,0,0,0,0,0,0,0,0,0,0,0,0,-5,-2,-17,-5,-16,-5,-16,-6,-16,-7,-15,-8,-13,-9,-11,-9,-9,-9,-7,-9,-5,-8,-4,-6,-2,-5,-1,-4,0,-3,0,-3,0,-2,1,-2,1,-1,1,-1,0,-1,0,-2,-1,-2,-2,-2,-3,-4,-5,-5,-7,-6]",2026-01-09 12:15:41.367,0,0,0,0,0.0,0,0,0,0,0,0,0,0.0,0.0,0.0
CSI_DATA,77691,60:60:1f:fd:0a:5b,-60,10,0,0,0,0,0,0,0,0,0,-89,0,4,0,758821962,0,67,0,128,1,"[67,48,4,0,-14,7,-15,8,-16,8,-17,10,-18,12,-19,13,-19,15,-19,16,-18,19,-17,22,-19,25,-19,29,-19,31,-20,32,-21,32,-18,31,-16,32,-19,34,-24,36,-24,37,-21,35,-21,32,-22,31,-23,30,-23,29,-6,7,0,0,0,0,0,0,0,0,0,0,0,0,0,0,0,0,0,0,-4,3,-14,12,-14,11,-15,11,-15,10,-15,8,-15,7,-14,5,-13,3,-12,2,-10,1,-8,0,-7,-1,-5,-1,-4,-1,-4,0,-5,1,-3,0,2,-1,2,-1,-1,0,-2,0,-2,1,-4,1,-5,3,-7,4,-8,5]",2026-01-09 12:15:41.422,0,0,0,0,0.0,0,0,0,0,0,0,0,0.0,0.0,0.0
CSI_DATA,77696,60:60:1f:fd:0a:5b,-61,9,0,0,0,0,0,0,0,0,0,-89,0,4,0,758872562,0,67,0,128,1,"[67,48,4,0,-11,-10,-12,-11,-13,-12,-15,-12,-17,-13,-18,-12,-20,-12,-21,-12,-23,-10,-26,-8,-28,-8,-30,-7,-32,-6,-34,-5,-35,-4,-37,-4,-38,-5,-38,-6,-39,-6,-39,-6,-38,-7,-35,-7,-33,-7,-32,-8,-31,-9,-8,-3,0,0,0,0,0,0,0,0,0,0,0,0,0,0,0,0,0,0,-4,-3,-14,-12,-13,-12,-13,-12,-13,-13,-11,-13,-9,-13,-7,-12,-6,-12,-4,-10,-3,-9,-2,-7,-1,-6,0,-4,0,-3,0,-2,0,-1,0,-1,0,-1,0,-1,0,-1,0,-1,-3,-1,-5,-1,-6,-4,-7,-5,-7,-5]",2026-01-09 12:15:41.486,0,0,0,0,0.0,0,0,0,0,0,0,0,0.0,0.0,0.0
CSI_DATA,77700,60:60:1f:fd:0a:5b,-62,9,0,0,0,0,0,0,0,0,0,-89,0,4,0,758914799,0,67,0,128,1,"[67,48,4,0,1,14,1,16,1,17,2,18,3,19,5,20,6,21,7,21,9,21,11,22,14,24,17,25,18,25,18,25,20,27,22,28,22,29,22,30,21,30,21,29,21,29,21,28,18,28,16,28,15,27,3,6,0,0,0,0,0,0,0,0,0,0,0,0,0,0,0,0,0,0,1,4,5,17,4,16,3,16,2,16,1,16,0,15,-1,13,-2,12,-3,11,-3,8,-3,6,-3,5,-3,3,-3,2,-2,1,-2,0,-1,0,-1,-1,-1,0,-1,0,0,1,1,1,4,-1,7,-2,4,2,1,5]",2026-01-09 12:15:41.548,0,0,0,0,0.0,0,0,0,0,0,0,0,0.0,0.0,0.0
CSI_DATA,77708,60:60:1f:fd:0a:5b,-63,14,0,0,0,0,0,0,0,0,0,-89,0,4,0,758997871,0,67,0,128,1,"[67,48,4,0,-14,4,-15,5,-16,5,-18,6,-19,8,-20,8,-20,9,-19,10,-19,12,-20,15,-21,18,-21,20,-21,21,-22,21,-22,23,-22,24,-24,23,-25,21,-26,23,-26,24,-26,24,-26,24,-26,22,-23,19,-22,17,-6,3,0,0,0,0,0,0,0,0,0,0,0,0,0,0,0,0,0,0,-4,2,-15,9,-15,9,-15,8,-16,7,-15,5,-15,4,-14,3,-13,1,-11,0,-9,0,-7,-1,-5,-1,-4,-1,-3,-1,-2,-1,-1,-1,-1,0,0,0,0,0,0,1,0,1,-1,1,-3,2,-4,2,-6,3,-8,3]",2026-01-09 12:15:41.598,0,0,0,0,0.0,0,0,0,0,0,0,0,0.0,0.0,0.0
CSI_DATA,77712,60:60:1f:fd:0a:5b,-62,14,0,0,0,0,0,0,0,0,0,-89,0,4,0,759041324,0,67,0,128,1,"[67,48,4,0,-14,6,-15,6,-16,6,-17,7,-18,9,-19,10,-19,12,-19,13,-19,15,-18,17,-19,20,-19,23,-18,25,-19,26,-19,28,-19,30,-21,30,-22,29,-22,28,-22,29,-21,29,-21,27,-20,26,-22,25,-24,24,-6,6,0,0,0,0,0,0,0,0,0,0,0,0,0,0,0,0,0,0,-5,1,-17,5,-17,5,-18,5,-18,4,-17,3,-17,2,-15,1,-14,-1,-12,-1,-10,-2,-8,-2,-6,-1,-5,-1,-4,-1,-3,0,-2,0,-1,0,-1,1,-1,1,1,1,3,0,0,1,-3,2,-6,3,-8,4,-8,5]",2026-01-09 12:15:41.666,0,0,0,0,0.0,0,0,0,0,0,0,0,0.0,0.0,0.0
CSI_DATA,77720,60:60:1f:fd:0a:5b,-63,14,0,0,0,0,0,0,0,0,0,-89,0,4,0,759118703,0,67,0,128,1,"[67,48,4,0,12,7,13,8,14,9,15,9,16,9,18,9,20,8,21,8,22,7,24,5,26,4,28,3,30,2,31,1,33,1,35,0,36,1,36,2,36,3,36,2,35,2,35,2,33,2,31,4,30,6,7,1,0,0,0,0,0,0,0,0,0,0,0,0,0,0,0,0,0,0,3,3,14,12,14,12,13,13,12,13,11,13,10,13,8,13,6,12,5,11,4,9,3,7,2,5,2,4,2,2,1,1,1,0,1,0,1,-1,2,-1,2,-2,3,-2,3,-1,4,-1,6,0,7,1,8,2]",2026-01-09 12:15:41.718,0,0,0,0,0.0,0,0,0,0,0,0,0,0.0,0.0,0.0
CSI_DATA,77724,60:60:1f:fd:0a:5b,-63,14,0,0,0,0,0,0,0,0,0,-89,0,4,0,759156827,0,67,0,128,1,"[67,48,4,0,-9,-15,-8,-17,-9,-17,-11,-17,-12,-18,-14,-18,-15,-19,-16,-19,-18,-19,-21,-18,-24,-18,-26,-18,-28,-17,-30,-18,-32,-19,-35,-20,-35,-20,-34,-22,-32,-23,-30,-22,-31,-21,-31,-21,-28,-21,-27,-21,-28,-22,-8,-6,0,0,0,0,0,0,0,0,0,0,0,0,0,0,0,0,0,0,-3,-5,-10,-20,-10,-20,-9,-19,-8,-19,-7,-20,-6,-19,-4,-18,-3,-16,-1,-14,-1,-12,-1,-10,-1,-8,-1,-6,-2,-5,-2,-3,-2,-2,-3,-1,-3,-1,-4,0,-4,0,-5,-1,-6,-1,-6,-2,-7,-4,-8,-6,-8,-8]",2026-01-09 12:15:41.775,0,0,0,0,0.0,0,0,0,0,0,0,0,0.0,0.0,0.0
CSI_DATA,77729,60:60:1f:fd:0a:5b,-63,9,0,0,0,0,0,0,0,0,0,-89,0,4,0,759202441,0,67,0,128,1,"[67,48,4,0,-16,-6,-17,-7,-17,-8,-18,-8,-20,-8,-21,-8,-22,-7,-23,-6,-24,-5,-26,-4,-28,-2,-30,0,-31,1,-33,2,-35,3,-36,3,-37,3,-37,2,-36,1,-36,1,-37,1,-36,1,-34,0,-33,-4,-34,-5,-9,-1,0,0,0,0,0,0,0,0,0,0,0,0,0,0,0,0,0,0,-5,-5,-17,-17,-17,-17,-16,-17,-16,-17,-15,-17,-13,-17,-11,-16,-10,-15,-8,-14,-7,-12,-6,-9,-6,-7,-5,-5,-5,-4,-5,-2,-5,-1,-5,0,-6,1,-6,2,-7,2,-7,3,-8,2,-9,2,-10,1,-12,0,-12,-2]",2026-01-09 12:15:41.828,0,0,0,0,0.0,0,0,0,0,0,0,0,0.0,0.0,0.0
CSI_DATA,77738,60:60:1f:fd:0a:5b,-63,9,0,0,0,0,0,0,0,0,0,-89,0,4,0,759278998,0,67,0,128,1,"[67,48,4,0,-4,-14,-4,-15,-3,-16,-3,-17,-3,-17,-4,-18,-5,-19,-6,-20,-8,-21,-10,-21,-12,-23,-14,-24,-16,-25,-17,-26,-19,-27,-20,-29,-20,-30,-19,-30,-18,-31,-18,-31,-18,-30,-19,-29,-18,-28,-15,-28,-13,-27,-4,-7,0,0,0,0,0,0,0,0,0,0,0,0,0,0,0,0,0,0,3,-5,12,-20,12,-19,12,-18,12,-18,13,-17,12,-16,11,-14,11,-12,9,-10,7,-9,5,-7,3,-7,1,-6,-1,-5,-2,-5,-4,-4,-5,-4,-5,-4,-6,-4,-7,-4,-8,-4,-8,-5,-9,-6,-9,-7,-8,-8,-7,-10]",2026-01-09 12:15:41.880,0,0,0,0,0.0,0,0,0,0,0,0,0,0.0,0.0,0.0
CSI_DATA,77742,60:60:1f:fd:0a:5b,-63,10,0,0,0,0,0,0,0,0,0,-89,0,4,0,759325475,0,67,0,128,1,"[67,48,4,0,-4,11,-4,12,-5,12,-5,13,-4,14,-4,15,-4,16,-3,17,-2,18,0,20,1,22,3,23,4,24,5,26,6,27,7,29,6,30,5,30,5,30,5,30,6,30,6,29,5,28,3,27,1,26,0,6,0,0,0,0,0,0,0,0,0,0,0,0,0,0,0,0,0,0,-5,2,-19,9,-19,9,-19,8,-19,7,-19,7,-18,6,-17,5,-16,3,-14,3,-12,2,-10,2,-8,2,-6,2,-5,2,-3,3,-2,3,-1,3,0,3,1,4,2,4,2,5,2,5,1,6,1,7,0,9,0,9]",2026-01-09 12:15:41.934,0,0,0,0,0.0,0,0,0,0,0,0,0,0.0,0.0,0.0
CSI_DATA,77745,60:60:1f:fd:0a:5b,-64,14,0,0,0,0,0,0,0,0,0,-89,0,4,0,759355324,0,67,0,128,1,"[67,48,4,0,-7,7,-8,7,-9,7,-10,8,-10,10,-10,12,-10,14,-10,15,-9,15,-7,17,-8,19,-8,22,-6,24,-6,25,-6,27,-6,30,-7,30,-8,30,-7,30,-7,29,-6,29,-6,29,-6,27,-8,26,-9,26,-3,6,0,0,0,0,0,0,0,0,0,0,0,0,0,0,0,0,0,0,-5,2,-18,7,-18,7,-18,6,-18,4,-18,4,-17,3,-15,2,-13,2,-12,1,-10,0,-8,0,-6,0,-4,0,-2,1,-1,1,0,1,1,1,2,2,2,2,2,2,2,2,2,3,1,4,0,5,-1,5,-2,5]",2026-01-09 12:15:41.994,52,0,79.5,126,4419.0,10,0,0,-8,0,0,0,-8.0,3.0,-1000.0
CSI_DATA,77755,60:60:1f:fd:0a:5b,-63,14,0,0,0,0,0,0,0,0,0,-91,0,4,0,759450044,0,67,0,128,1,"[67,48,4,0,-7,-8,-6,-10,-6,-11,-7,-12,-9,-13,-11,-14,-12,-15,-13,-15,-15,-15,-18,-15,-21,-16,-23,-15,-26,-14,-28,-15,-31,-16,-33,-15,-34,-16,-34,-18,-34,-19,-33,-20,-33,-19,-34,-18,-33,-17,-30,-17,-26,-18,-7,-5,0,0,0,0,0,0,0,0,0,0,0,0,0,0,0,0,0,0,-3,-6,-8,-20,-6,-20,-6,-21,-6,-21,-6,-20,-5,-19,-4,-18,-2,-15,-1,-13,-2,-10,-2,-8,-3,-5,-3,-3,-3,-2,-4,-1,-4,1,-4,3,-5,4,-5,4,-5,5,-5,5,-5,4,-6,3,-6,1,-6,0,-6,-2]",2026-01-09 12:15:42.051,52,0,79.5,126,4419.0,10,0,0,-8,0,0,0,-8.0,3.0,-1000.0
CSI_DATA,77759,60:60:1f:fd:0a:5b,-62,9,0,0,0,0,0,0,0,0,0,-91,0,4,0,759490165,0,67,0,128,1,"[67,48,4,0,-3,-10,-3,-11,-3,-13,-4,-14,-5,-15,-6,-15,-7,-16,-9,-16,-11,-16,-13,-17,-16,-17,-18,-17,-20,-17,-21,-17,-23,-18,-25,-19,-24,-20,-23,-20,-23,-21,-24,-21,-25,-21,-24,-20,-22,-18,-20,-19,-19,-21,-5,-6,0,0,0,0,0,0,0,0,0,0,0,0,0,0,0,0,0,0,-3,-3,-12,-12,-11,-12,-10,-13,-9,-13,-8,-12,-6,-12,-5,-11,-3,-10,-2,-8,-1,-7,0,-5,0,-3,0,-2,0,0,1,0,0,1,1,2,1,2,1,3,1,3,1,3,1,2,0,1,-1,-1,-1,-2,-2,-4]",2026-01-09 12:15:42.114,52,0,79.5,126,4415.0,10,0,0,-8,0,0,0,-6.0,2.0,-999.0
CSI_DATA,77766,60:60:1f:fd:0a:5b,-62,9,0,0,0,0,0,0,0,0,0,-91,0,4,0,759586198,0,67,0,128,1,"[67,48,4,0,-9,0,-11,-1,-13,-2,-14,-2,-16,-1,-18,-1,-19,0,-21,1,-22,3,-24,5,-26,7,-28,9,-30,11,-31,12,-33,14,-35,16,-36,16,-37,15,-37,14,-37,14,-37,15,-36,14,-35,13,-35,11,-35,10,-9,2,0,0,0,0,0,0,0,0,0,0,0,0,0,0,0,0,0,0,-5,1,-20,6,-20,5,-20,4,-20,3,-18,2,-16,1,-14,0,-12,0,-9,0,-6,1,-3,2,-1,2,1,3,2,4,3,4,5,4,6,5,6,6,6,6,7,7,7,6,6,5,4,4,3,5,1,5,-1,4]",2026-01-09 12:15:42.186,52,0,79.5,126,4415.0,10,0,0,-8,0,0,0,-6.0,2.0,-999.0
CSI_DATA,77772,60:60:1f:fd:0a:5b,-62,9,0,0,0,0,0,0,0,0,0,-91,0,4,0,759630938,0,67,0,128,1,"[67,48,4,0,1,5,0,7,0,8,0,10,0,11,1,13,1,14,2,15,4,16,5,18,7,19,9,21,11,22,12,24,13,25,15,27,14,28,14,29,13,29,13,28,14,28,14,28,13,27,11,27,10,26,2,6,0,0,0,0,0,0,0,0,0,0,0,0,0,0,0,0,0,0,1,4,4,16,3,16,2,15,2,15,1,14,1,12,0,10,0,8,0,6,1,4,2,2,2,0,3,-1,4,-3,5,-4,5,-5,5,-6,5,-6,6,-7,6,-7,6,-7,6,-6,5,-5,5,-4,4,-2,4,-1]",2026-01-09 12:15:42.240,52,0,79.5,126,4420.0,10,0,0,-8,0,0,0,-8.0,2.0,-999.0
CSI_DATA,77773,60:60:1f:fd:0a:5b,-62,9,0,0,0,0,0,0,0,0,0,-91,0,4,0,759661035,0,67,0,128,1,"[67,48,4,0,1,6,0,8,-1,10,-1,12,-1,14,-1,16,0,17,1,19,2,21,4,23,7,25,9,27,10,29,11,31,12,33,14,35,15,36,13,37,12,38,11,37,12,37,14,37,12,37,8,34,7,32,1,8,0,0,0,0,0,0,0,0,0,0,0,0,0,0,0,0,0,0,0,5,2,21,1,21,1,21,1,20,0,19,0,17,-1,14,-1,12,0,9,1,7,2,4,4,2,5,0,6,-2,7,-4,7,-5,8,-6,8,-7,9,-7,9,-8,9,-8,9,-7,8,-6,8,-4,7,-2,6,-1]",2026-01-09 12:15:42.290,52,0,79.5,126,4420.0,10,0,0,-8,0,0,0,-8.0,2.0,-999.0
CSI_DATA,77778,60:60:1f:fd:0a:5b,-61,9,0,0,0,0,0,0,0,0,0,-91,0,4,0,760035399,0,67,0,128,1,"[67,48,4,0,8,-3,9,-2,11,-1,13,-1,14,-2,16,-2,17,-3,18,-3,20,-5,21,-7,22,-9,24,-11,25,-14,26,-15,27,-17,29,-18,31,-18,32,-18,32,-17,31,-18,30,-19,30,-19,30,-18,30,-15,32,-14,8,-4,0,0,0,0,0,0,0,0,0,0,0,0,0,0,0,0,0,0,6,-1,24,-4,24,-3,24,-3,24,-2,23,-1,21,0,19,0,17,1,14,0,12,-1,9,-2,7,-3,5,-5,3,-6,1,-7,-1,-7,-2,-8,-3,-8,-4,-9,-4,-9,-4,-9,-4,-9,-3,-9,-1,-9,0,-8,1,-7]",2026-01-09 12:15:43.338,52,0,82.0,126,4416.0,10,0,0,-8,0,0,0,-7.0,2.0,-1000.0
CSI_DATA,77784,60:60:1f:fd:0a:5b,-59,9,0,0,0,0,0,0,0,0,0,-91,0,4,0,760117971,0,67,0,128,1,"[67,48,4,0,5,8,4,9,3,11,3,12,3,13,5,15,6,16,6,16,7,17,9,18,12,19,14,21,15,22,17,23,19,25,21,25,20,26,20,27,20,27,20,27,21,26,21,26,20,26,17,25,16,26,3,6,0,0,0,0,0,0,0,0,0,0,0,0,0,0,0,0,0,0,-1,6,-1,24,-1,23,-1,23,-1,22,-2,21,-3,20,-3,19,-3,17,-2,14,-1,12,0,9,2,7,3,5,4,4,5,2,6,1,7,0,7,-1,8,-2,8,-2,8,-2,9,-2,8,-1,8,0,8,1,7,2]",2026-01-09 12:15:43.389,52,0,82.0,126,4422.0,10,0,0,-8,0,0,0,-8.0,3.0,-998.0
CSI_DATA,77788,60:60:1f:fd:0a:5b,-61,9,0,0,0,0,0,0,0,0,0,-91,0,4,0,760155200,0,67,0,128,1,"[67,48,4,0,6,7,5,8,5,10,5,12,5,13,6,14,7,15,8,16,10,17,12,18,15,19,17,20,20,20,21,20,24,21,26,22,27,24,27,24,26,25,25,25,26,24,27,23,26,23,23,24,20,25,4,6,0,0,0,0,0,0,0,0,0,0,0,0,0,0,0,0,0,0,1,6,5,24,5,24,5,24,4,24,3,23,2,21,2,19,1,17,1,15,2,12,3,9,4,7,5,4,6,2,7,1,8,-1,8,-2,8,-3,9,-4,9,-5,9,-5,9,-4,9,-4,9,-2,9,-1,9,0]",2026-01-09 12:15:43.440,52,0,82.0,126,4416.0,10,0,0,-8,0,0,0,-8.0,4.0,-1000.0
CSI_DATA,77791,60:60:1f:fd:0a:5b,-60,9,0,0,0,0,0,0,0,0,0,-91,0,4,0,760178809,0,67,0,128,1,"[67,48,4,0,-8,-5,-8,-7,-7,-8,-9,-9,-10,-10,-10,-10,-10,-12,-11,-14,-13,-15,-16,-15,-19,-16,-23,-17,-24,-16,-24,-16,-26,-18,-28,-17,-31,-16,-32,-17,-27,-19,-25,-20,-27,-20,-29,-19,-28,-19,-25,-21,-20,-20,-5,-5,0,0,0,0,0,0,0,0,0,0,0,0,0,0,0,0,0,0,-3,-5,-11,-19,-11,-20,-11,-20,-11,-20,-10,-19,-9,-18,-8,-17,-7,-15,-7,-13,-6,-10,-6,-8,-7,-6,-7,-4,-8,-2,-8,0,-8,1,-8,3,-8,4,-8,5,-8,5,-8,5,-8,5,-8,5,-8,5,-9,4,-10,2]",2026-01-09 12:15:43.492,52,0,82.0,126,4416.0,10,0,0,-8,0,0,0,-8.0,4.0,-1000.0
CSI_DATA,77801,60:60:1f:fd:0a:5b,-51,9,0,0,0,0,0,0,0,0,0,-91,0,4,0,760272299,0,67,0,128,1,"[67,48,4,0,-6,-26,-7,-27,-7,-28,-8,-28,-10,-28,-11,-29,-11,-29,-11,-29,-13,-29,-14,-29,-15,-30,-16,-30,-16,-30,-16,-30,-16,-30,-15,-30,-13,-30,-11,-29,-9,-28,-8,-28,-7,-26,-7,-25,-6,-23,-3,-21,-1,-20,-1,-5,0,0,0,0,0,0,0,0,0,0,0,0,0,0,0,0,0,0,-1,2,-2,11,-3,10,-3,10,-3,9,-4,7,-4,6,-4,4,-3,3,-3,2,-2,1,-1,-1,-1,-2,0,-3,0,-4,0,-5,0,-7,0,-8,1,-9,0,-11,0,-13,0,-14,-1,-16,-1,-18,-2,-20,-3,-22,-3,-23]",2026-01-09 12:15:43.545,52,0,82.0,126,4417.0,10,0,0,-8,0,0,0,-7.0,2.0,-1001.0
CSI_DATA,77806,60:60:1f:fd:0a:5b,-51,9,0,0,0,0,0,0,0,0,0,-91,0,4,0,760325924,0,67,0,128,1,"[67,48,4,0,-21,14,-21,15,-22,16,-22,16,-22,18,-22,19,-22,20,-22,20,-21,21,-21,23,-21,24,-21,25,-20,26,-20,25,-21,25,-21,26,-21,24,-21,21,-21,18,-21,17,-20,17,-19,16,-18,13,-18,10,-18,8,-5,2,0,0,0,0,0,0,0,0,0,0,0,0,0,0,0,0,0,0,3,-1,12,-1,11,0,11,0,10,0,9,1,7,2,5,2,4,2,3,2,1,1,0,1,-1,1,-3,1,-4,0,-5,1,-6,1,-7,1,-9,1,-10,2,-11,3,-13,4,-14,5,-15,6,-17,8,-18,10,-19,10]",2026-01-09 12:15:43.613,52,0,82.0,126,4417.0,10,0,0,-8,0,0,0,-7.0,2.0,-1001.0
CSI_DATA,77813,60:60:1f:fd:0a:5b,-51,9,0,0,0,0,0,0,0,0,0,-91,0,4,0,760401826,0,67,0,128,1,"[67,48,4,0,-4,21,-3,22,-3,23,-3,24,-2,25,-1,25,0,26,0,26,1,26,3,27,3,28,4,28,4,29,3,28,3,29,3,29,1,28,0,26,-2,25,-2,23,-2,22,-3,21,-3,19,-4,17,-5,15,-2,3,0,0,0,0,0,0,0,0,0,0,0,0,0,0,0,0,0,0,2,-3,7,-8,7,-8,7,-7,7,-6,7,-5,6,-4,5,-3,4,-2,3,-1,2,-1,1,0,0,1,-1,1,-2,2,-3,3,-3,4,-4,4,-4,5,-4,7,-5,8,-5,10,-5,11,-5,13,-5,15,-5,17,-5,18]",2026-01-09 12:15:43.673,52,0,82.0,126,4418.0,10,0,0,-8,0,0,0,-8.0,3.0,-998.0
CSI_DATA,77816,60:60:1f:fd:0a:5b,-51,9,0,0,0,0,0,0,0,0,0,-91,0,4,0,760443360,0,67,0,128,1,"[67,48,4,0,4,23,5,24,5,25,6,25,7,25,8,26,8,27,9,28,11,27,13,26,14,27,15,28,14,29,14,29,14,29,14,29,11,27,7,26,6,27,7,27,7,26,5,23,3,20,2,20,1,21,0,5,0,0,0,0,0,0,0,0,0,0,0,0,0,0,0,0,0,0,0,-3,3,-12,3,-11,4,-11,4,-10,4,-8,4,-7,3,-5,3,-4,2,-3,2,-2,1,-1,0,0,-1,1,-1,2,-1,3,-1,4,-2,5,-2,7,-2,8,-1,10,-1,11,-1,13,0,14,0,17,1,19,2,20]",2026-01-09 12:15:43.733,52,0,82.0,126,4418.0,10,0,0,-8,0,0,0,-8.0,3.0,-998.0
CSI_DATA,77819,60:60:1f:fd:0a:5b,-51,9,0,0,0,0,0,0,0,0,0,-91,0,4,0,760469185,0,67,0,128,1,"[67,48,4,0,21,4,22,3,23,3,24,3,25,1,25,0,26,0,26,0,26,-1,27,-2,27,-3,28,-3,28,-4,28,-3,28,-3,29,-3,29,-1,27,1,25,2,23,1,22,1,21,2,19,3,17,4,15,5,3,1,0,0,0,0,0,0,0,0,0,0,0,0,0,0,0,0,0,0,-2,-2,-8,-8,-7,-8,-7,-9,-6,-8,-5,-8,-3,-7,-3,-6,-2,-5,-1,-4,0,-3,0,-2,1,-1,1,0,2,1,3,1,4,2,5,3,5,3,7,4,8,4,10,4,11,4,12,5,14,5,16,5,17,5]",2026-01-09 12:15:43.792,52,0,82.0,126,4416.0,10,0,0,-8,0,0,0,-6.0,3.0,-999.0
CSI_DATA,77829,60:60:1f:fd:0a:5b,-52,9,0,0,0,0,0,0,0,0,0,-91,0,4,0,760573392,0,67,0,128,1,"[67,48,4,0,-1,-25,-2,-26,-2,-27,-3,-28,-5,-29,-6,-29,-6,-30,-7,-30,-8,-30,-10,-31,-11,-31,-12,-32,-12,-32,-11,-32,-11,-32,-11,-32,-8,-32,-6,-32,-5,-30,-5,-28,-5,-27,-4,-26,-3,-24,-1,-21,1,-19,0,-5,0,0,0,0,0,0,0,0,0,0,0,0,0,0,0,0,0,0,-2,2,-5,10,-6,10,-6,9,-6,8,-6,7,-6,5,-5,4,-4,3,-3,2,-2,1,-1,0,0,-1,1,-2,1,-3,2,-4,2,-5,2,-6,2,-8,2,-9,3,-11,2,-13,3,-14,5,-14,4,-15,1,-17,0,-20]",2026-01-09 12:15:43.845,52,0,82.0,126,4416.0,10,0,0,-8,0,0,0,-8.0,2.0,-998.0
CSI_DATA,77833,60:60:1f:fd:0a:5b,-52,9,0,0,0,0,0,0,0,0,0,-91,0,4,0,760619303,0,67,0,128,1,"[67,48,4,0,8,-21,8,-22,8,-23,8,-24,7,-25,6,-26,5,-27,5,-27,4,-28,3,-29,3,-29,2,-30,2,-30,3,-30,4,-30,4,-30,5,-29,6,-27,8,-25,8,-24,7,-23,7,-22,8,-20,9,-17,10,-15,2,-4,0,0,0,0,0,0,0,0,0,0,0,0,0,0,0,0,0,0,-3,1,-9,7,-9,6,-8,5,-8,4,-8,3,-7,3,-6,2,-5,1,-4,1,-3,0,-1,0,0,-1,1,-1,1,-2,2,-3,3,-4,3,-4,4,-5,5,-7,6,-8,6,-10,6,-11,8,-12,10,-14,10,-16,8,-17]",2026-01-09 12:15:43.911,52,0,82.0,126,4416.0,10,0,0,-8,0,0,0,-8.0,2.0,-998.0
CSI_DATA,77840,60:60:1f:fd:0a:5b,-52,13,0,0,0,0,0,0,0,0,0,-91,0,4,0,760698558,0,67,0,128,1,"[67,48,4,0,-11,-24,-12,-24,-12,-25,-13,-25,-15,-26,-16,-26,-17,-26,-17,-26,-19,-26,-20,-26,-21,-26,-23,-26,-23,-26,-22,-27,-22,-27,-23,-27,-20,-27,-17,-27,-15,-27,-14,-26,-13,-25,-11,-24,-10,-22,-7,-20,-5,-19,-2,-5,0,0,0,0,0,0,0,0,0,0,0,0,0,0,0,0,0,0,-1,2,-1,11,-1,11,-2,10,-3,9,-3,8,-3,7,-3,5,-3,4,-2,2,-2,1,-1,0,-1,-1,0,-2,0,-4,0,-5,0,-6,0,-7,-1,-9,-1,-10,-2,-12,-2,-13,-3,-15,-4,-17,-5,-19,-7,-20,-7,-21]",2026-01-09 12:15:43.971,52,0,82.5,126,4423.0,10,0,0,-8,0,0,0,-6.0,3.0,-1001.0
CSI_DATA,77844,60:60:1f:fd:0a:5b,-52,13,0,0,0,0,0,0,0,0,0,-91,0,4,0,760749934,0,67,0,128,1,"[67,48,4,0,-14,-19,-16,-19,-16,-19,-17,-19,-18,-19,-20,-19,-20,-19,-21,-19,-22,-18,-24,-17,-25,-17,-26,-17,-26,-17,-25,-18,-26,-18,-25,-18,-24,-19,-22,-19,-20,-19,-18,-19,-18,-19,-16,-18,-14,-17,-11,-16,-10,-17,-3,-5,0,0,0,0,0,0,0,0,0,0,0,0,0,0,0,0,0,0,0,2,1,10,0,10,-1,9,-2,9,-2,7,-2,6,-2,4,-2,3,-2,2,-2,1,-1,0,-1,-1,-1,-2,-1,-3,-1,-5,-2,-6,-2,-7,-2,-8,-3,-9,-4,-10,-5,-11,-6,-12,-7,-14,-9,-15,-10,-16,-11,-17]",2026-01-09 12:15:44.039,52,0,82.5,126,4423.0,10,0,0,-8,0,0,0,-6.0,3.0,-1001.0
CSI_DATA,77846,60:60:1f:fd:0a:5b,-52,13,0,0,0,0,0,0,0,0,0,-91,0,4,0,760792445,0,67,0,128,1,"[67,48,4,0,-22,-15,-23,-14,-24,-14,-25,-14,-26,-13,-27,-13,-28,-13,-28,-12,-29,-10,-30,-9,-32,-9,-33,-9,-34,-9,-33,-10,-34,-10,-33,-10,-31,-11,-28,-12,-26,-13,-25,-13,-22,-12,-20,-11,-19,-10,-16,-11,-13,-14,-3,-4,0,0,0,0,0,0,0,0,0,0,0,0,0,0,0,0,0,0,1,2,4,10,3,10,2,10,1,9,0,8,0,7,-1,5,-1,4,-1,3,-1,1,-2,0,-2,-1,-2,-3,-2,-4,-3,-5,-4,-6,-4,-7,-5,-8,-6,-8,-8,-9,-9,-10,-11,-11,-12,-12,-14,-13,-17,-14,-17,-14]",2026-01-09 12:15:44.090,52,0,82.5,126,4423.0,10,0,0,-8,0,0,0,-7.0,3.0,-1001.0
CSI_DATA,77855,60:60:1f:fd:0a:5b,-52,13,0,0,0,0,0,0,0,0,0,-91,0,4,0,760873153,0,67,0,128,1,"[67,48,4,0,25,-8,25,-9,26,-9,27,-10,27,-12,27,-13,28,-14,28,-14,27,-15,27,-17,27,-18,28,-19,28,-20,28,-19,29,-19,29,-18,28,-16,28,-13,27,-11,26,-10,25,-10,23,-9,22,-7,20,-5,19,-3,4,-1,0,0,0,0,0,0,0,0,0,0,0,0,0,0,0,0,0,0,-3,-1,-12,-3,-11,-3,-10,-3,-9,-4,-8,-4,-6,-4,-5,-3,-4,-3,-2,-2,-1,-2,0,-1,1,-1,2,0,3,0,5,0,6,0,7,1,8,0,10,0,12,-1,13,-1,15,-2,17,-3,19,-4,21,-5,22,-5]",2026-01-09 12:15:44.145,52,0,82.5,126,4423.0,10,0,0,-8,0,0,0,-7.0,3.0,-1001.0
CSI_DATA,77859,60:60:1f:fd:0a:5b,-52,9,0,0,0,0,0,0,0,0,0,-91,0,4,0,760943371,0,67,0,128,1,"[67,48,4,0,22,-5,23,-6,23,-6,24,-7,24,-8,25,-10,25,-10,25,-11,25,-12,24,-14,24,-15,25,-15,26,-16,26,-15,26,-15,26,-15,26,-13,25,-11,25,-9,24,-8,22,-7,20,-6,19,-4,18,-1,16,0,4,0,0,0,0,0,0,0,0,0,0,0,0,0,0,0,0,0,0,0,-3,-1,-10,-3,-10,-3,-9,-4,-8,-4,-6,-4,-5,-4,-4,-3,-3,-3,-2,-2,-1,-1,0,-1,1,0,2,0,3,1,4,1,5,1,6,1,7,1,9,1,10,0,12,0,13,-1,15,-1,17,-2,18,-3,19,-3]",2026-01-09 12:15:44.241,52,0,82.5,126,4423.0,10,0,0,-8,0,0,0,-8.0,4.0,-1000.0
CSI_DATA,77867,60:60:1f:fd:0a:5b,-51,14,0,0,0,0,0,0,0,0,0,-91,0,4,0,761050628,0,67,0,128,1,"[67,48,4,0,11,-22,11,-23,11,-24,11,-25,10,-26,9,-27,9,-28,9,-28,8,-29,7,-30,6,-31,6,-31,6,-32,6,-31,7,-32,7,-32,9,-31,10,-28,10,-26,10,-25,9,-24,9,-22,10,-19,11,-16,10,-15,2,-4,0,0,0,0,0,0,0,0,0,0,0,0,0,0,0,0,0,0,-3,1,-9,5,-9,4,-8,3,-8,2,-8,1,-7,0,-5,0,-4,-1,-3,-1,-1,-2,0,-2,1,-2,2,-3,3,-4,4,-4,4,-5,5,-6,6,-7,7,-8,8,-9,8,-11,9,-12,10,-14,10,-16,11,-18,11,-19]",2026-01-09 12:15:44.337,52,0,82.5,126,4423.0,10,0,0,-8,0,0,0,-9.0,3.0,-999.0
CSI_DATA,77870,60:60:1f:fd:0a:5b,-51,9,0,0,0,0,0,0,0,0,0,-91,0,4,0,761079279,0,67,0,128,1,"[67,48,4,0,25,7,26,6,27,6,28,6,29,5,30,4,31,4,31,4,31,2,32,0,33,-1,34,-1,34,0,34,1,34,1,34,1,33,3,31,5,29,6,28,6,26,6,24,6,22,7,19,8,17,9,4,2,0,0,0,0,0,0,0,0,0,0,0,0,0,0,0,0,0,0,-3,-2,-9,-8,-8,-8,-7,-8,-6,-8,-4,-8,-3,-7,-2,-6,-1,-4,0,-3,1,-2,1,-1,2,0,2,1,3,2,4,3,5,4,6,4,7,5,9,5,10,6,12,7,14,7,13,8,12,10,15,9,20,8]",2026-01-09 12:15:44.395,52,0,82.5,126,4421.0,10,0,0,-8,0,0,0,-9.0,3.0,-999.0
CSI_DATA,77880,60:60:1f:fd:0a:5b,-51,9,0,0,0,0,0,0,0,0,0,-91,0,4,0,761182281,0,67,0,128,1,"[67,48,4,0,17,-15,18,-16,18,-16,19,-18,18,-19,18,-20,18,-21,18,-21,18,-22,17,-24,17,-25,17,-25,17,-26,18,-25,18,-26,18,-25,19,-23,19,-20,19,-18,19,-18,17,-18,16,-16,16,-13,15,-10,14,-8,3,-2,0,0,0,0,0,0,0,0,0,0,0,0,0,0,0,0,0,0,-3,0,-10,1,-10,1,-9,0,-8,-1,-7,-1,-6,-2,-5,-2,-3,-2,-2,-2,0,-1,0,-1,1,-2,2,-2,4,-2,4,-2,5,-3,6,-3,8,-3,9,-4,10,-5,11,-6,12,-7,13,-8,14,-10,16,-12,16,-12]",2026-01-09 12:15:44.454,52,0,82.5,126,4421.0,10,0,0,-8,0,0,0,-9.0,3.0,-999.0
CSI_DATA,77885,60:60:1f:fd:0a:5b,-52,9,0,0,0,0,0,0,0,0,0,-91,0,4,0,761220469,0,67,0,128,1,"[67,48,4,0,26,11,27,10,28,11,29,10,31,9,32,8,33,8,33,8,34,6,35,4,36,4,37,4,37,3,37,4,37,4,37,4,35,6,32,9,30,10,30,10,28,8,26,8,24,9,20,10,17,11,4,2,0,0,0,0,0,0,0,0,0,0,0,0,0,0,0,0,0,0,-2,-3,-7,-10,-6,-10,-5,-10,-4,-10,-2,-9,-1,-8,-1,-6,0,-5,1,-3,1,-2,2,0,2,1,3,2,3,3,4,4,5,5,6,6,7,7,9,8,11,8,12,9,14,9,15,10,18,10,21,10,22,11]",2026-01-09 12:15:44.513,52,0,82.5,126,4421.0,10,0,0,-8,0,0,0,-6.0,3.0,-1000.0
CSI_DATA,77892,60:60:1f:fd:0a:5b,-51,9,0,0,0,0,0,0,0,0,0,-91,0,4,0,761300706,0,67,0,128,1,"[67,48,4,0,22,-3,23,-4,24,-4,25,-5,25,-6,25,-7,26,-8,27,-9,27,-9,27,-12,28,-14,28,-14,27,-13,27,-12,29,-13,29,-13,27,-11,25,-7,24,-5,24,-6,23,-6,21,-4,20,-4,20,-2,19,0,4,0,0,0,0,0,0,0,0,0,0,0,0,0,0,0,0,0,0,0,-3,-2,-9,-6,-8,-6,-7,-6,-6,-6,-5,-6,-4,-5,-3,-5,-1,-4,-1,-3,0,-2,1,-2,2,-1,3,0,3,1,4,1,6,2,7,2,8,2,9,2,10,2,12,2,13,2,15,2,17,1,19,0,19,0]",2026-01-09 12:15:44.572,52,0,82.5,126,4422.0,10,0,0,-8,0,0,0,-8.0,6.0,-999.0
CSI_DATA,77897,60:60:1f:fd:0a:5b,-51,9,0,0,0,0,0,0,0,0,0,-91,0,4,0,761348314,0,67,0,128,1,"[67,48,4,0,-24,-5,-25,-4,-25,-4,-26,-3,-27,-2,-28,-1,-29,-1,-29,0,-29,1,-30,2,-31,3,-32,4,-32,4,-32,3,-32,3,-32,3,-31,1,-29,-1,-28,-2,-27,-3,-25,-2,-24,-2,-22,-2,-19,-5,-18,-7,-5,-2,0,0,0,0,0,0,0,0,0,0,0,0,0,0,0,0,0,0,2,1,7,6,6,6,5,6,4,6,3,6,2,5,1,4,0,3,-1,2,-1,1,-2,-1,-3,-2,-3,-2,-4,-3,-5,-4,-6,-4,-7,-5,-8,-5,-9,-6,-11,-6,-12,-6,-14,-6,-15,-6,-17,-6,-19,-6,-20,-6]",2026-01-09 12:15:44.639,52,0,82.5,126,4422.0,10,0,0,-8,0,0,0,-8.0,6.0,-999.0
CSI_DATA,77899,60:60:1f:fd:0a:5b,-51,9,0,0,0,0,0,0,0,0,0,-91,0,4,0,761371247,0,67,0,128,1,"[67,48,4,0,-1,23,0,24,0,24,1,25,2,26,3,27,3,28,4,28,5,28,6,28,7,29,7,30,7,30,7,30,6,30,6,30,4,30,2,28,0,27,0,25,0,24,-1,23,-2,21,-4,19,-5,17,-2,4,0,0,0,0,0,0,0,0,0,0,0,0,0,0,0,0,0,0,0,-3,3,-10,4,-9,4,-8,4,-8,4,-6,4,-5,3,-3,3,-2,2,-1,1,0,0,1,-1,2,-2,3,-2,3,-3,4,-3,5,-3,7,-4,8,-4,9,-4,11,-4,12,-3,13,-4,16,-5,19,-4,20,-2,20]",2026-01-09 12:15:44.691,52,0,82.5,126,4418.0,10,0,0,-8,0,0,0,-8.0,5.0,-1000.0
CSI_DATA,77911,60:60:1f:fd:0a:5b,-51,9,0,0,0,0,0,0,0,0,0,-91,0,4,0,761482647,0,67,0,128,1,"[67,48,4,0,-14,-20,-15,-20,-16,-21,-17,-21,-19,-21,-20,-21,-20,-21,-20,-20,-22,-20,-24,-20,-25,-20,-25,-21,-26,-20,-25,-20,-25,-20,-24,-20,-22,-21,-19,-22,-17,-23,-16,-22,-16,-20,-17,-19,-15,-19,-10,-18,-7,-18,-2,-5,0,0,0,0,0,0,0,0,0,0,0,0,0,0,0,0,0,0,1,2,4,9,3,8,2,8,1,7,1,6,0,5,0,4,0,2,0,1,0,0,0,-2,0,-3,0,-4,0,-5,-1,-6,-1,-7,-2,-8,-2,-9,-3,-11,-4,-12,-5,-13,-6,-14,-6,-16,-7,-17,-9,-18,-11,-19]",2026-01-09 12:15:44.754,52,0,82.5,126,4418.0,10,0,0,-8,0,0,0,-8.0,5.0,-1000.0
CSI_DATA,77915,60:60:1f:fd:0a:5b,-51,9,0,0,0,0,0,0,0,0,0,-91,0,4,0,761507974,0,67,0,128,1,"[67,48,4,0,-24,-1,-25,0,-26,0,-27,1,-27,2,-28,3,-28,3,-28,3,-28,5,-29,6,-31,7,-31,8,-30,8,-30,6,-30,5,-29,4,-28,4,-27,3,-27,2,-26,0,-25,-1,-24,-2,-22,-3,-20,-4,-19,-5,-5,-2,0,0,0,0,0,0,0,0,0,0,0,0,0,0,0,0,0,0,2,0,10,1,9,2,8,2,7,2,6,2,5,2,4,2,3,1,2,0,0,0,-1,-1,-2,-2,-3,-2,-4,-3,-5,-3,-6,-4,-7,-4,-8,-5,-10,-4,-11,-4,-13,-4,-15,-4,-16,-4,-18,-3,-20,-3,-21,-3]",2026-01-09 12:15:44.809,52,0,82.5,126,4427.0,10,0,0,-8,0,0,0,-9.0,3.0,-1001.0
CSI_DATA,77923,60:60:1f:fd:0a:5b,-51,9,0,0,0,0,0,0,0,0,0,-91,0,4,0,761587619,0,67,0,128,1,"[67,48,4,0,8,21,9,21,10,22,11,22,12,22,13,23,14,23,14,23,15,23,17,22,18,23,19,24,19,24,18,24,18,24,18,24,16,25,14,24,12,24,11,23,10,22,9,21,8,19,5,18,3,17,0,4,0,0,0,0,0,0,0,0,0,0,0,0,0,0,0,0,0,0,-1,-3,-2,-11,-2,-11,-1,-10,-1,-9,0,-8,0,-7,0,-5,0,-4,0,-3,0,-2,-1,-1,-1,1,-1,2,-1,3,-1,4,-1,5,-1,6,-1,8,0,9,0,11,1,12,2,13,2,15,4,16,5,18,5,19]",2026-01-09 12:15:44.859,52,0,82.5,126,4415.0,10,0,0,-8,0,0,0,-9.0,2.0,-1001.0
CSI_DATA,77928,60:60:1f:fd:0a:5b,-51,9,0,0,0,0,0,0,0,0,0,-91,0,4,0,761641454,0,67,0,128,1,"[67,48,4,0,20,-12,20,-13,21,-13,21,-14,21,-16,21,-18,21,-18,21,-19,21,-20,20,-21,20,-22,21,-23,21,-23,21,-23,22,-23,22,-23,23,-21,23,-18,22,-16,21,-15,20,-15,19,-13,19,-11,18,-8,16,-5,4,-1,0,0,0,0,0,0,0,0,0,0,0,0,0,0,0,0,0,0,-2,0,-8,0,-7,0,-7,-1,-8,0,-7,0,-6,1,-5,1,-4,-1,-3,-1,-1,0,0,0,2,0,3,0,4,0,5,0,6,0,7,-1,8,-1,10,-2,11,-3,12,-4,13,-5,15,-5,16,-7,17,-8,18,-8]",2026-01-09 12:15:44.913,52,0,82.5,126,4415.0,10,0,0,-8,0,0,0,-9.0,2.0,-1001.0
CSI_DATA,77931,60:60:1f:fd:0a:5b,-51,9,0,0,0,0,0,0,0,0,0,-91,0,4,0,761659556,0,67,0,128,1,"[67,48,4,0,1,21,2,22,2,23,3,23,4,24,5,24,6,25,6,25,7,25,9,25,9,26,9,27,10,27,9,27,9,27,9,26,7,26,5,26,4,25,3,24,3,22,3,21,1,19,-2,18,-3,18,-1,4,0,0,0,0,0,0,0,0,0,0,0,0,0,0,0,0,0,0,0,-3,1,-10,1,-9,1,-9,2,-8,2,-7,2,-5,1,-4,1,-3,0,-2,0,-1,-1,0,-1,1,-2,2,-2,3,-3,4,-3,5,-3,6,-3,7,-3,9,-3,10,-2,12,-2,13,-2,15,-2,17,-1,18,0,19]",2026-01-09 12:15:44.969,52,0,83.0,126,4420.0,10,0,0,-8,0,0,0,-8.0,2.0,-999.0
CSI_DATA,77940,60:60:1f:fd:0a:5b,-50,9,0,0,0,0,0,0,0,0,0,-91,0,4,0,761753983,0,67,0,128,1,"[67,48,4,0,-25,1,-25,2,-26,2,-26,2,-27,4,-28,4,-28,4,-27,5,-27,6,-27,8,-28,9,-28,10,-29,10,-29,9,-29,9,-29,9,-30,7,-29,5,-27,3,-25,2,-24,2,-23,2,-21,0,-19,-1,-18,-3,-5,-1,0,0,0,0,0,0,0,0,0,0,0,0,0,0,0,0,0,0,2,0,8,1,8,2,7,2,6,2,5,2,4,2,2,2,1,1,0,1,-1,0,-2,-1,-3,-1,-4,-2,-5,-2,-6,-3,-7,-3,-8,-3,-9,-4,-11,-3,-12,-3,-14,-3,-15,-2,-17,-2,-19,-1,-20,-1,-21,-1]",2026-01-09 12:15:45.026,52,0,83.0,126,4420.0,10,0,0,-8,0,0,0,-8.0,2.0,-999.0
CSI_DATA,77944,60:60:1f:fd:0a:5b,-50,9,0,0,0,0,0,0,0,0,0,-91,0,4,0,761808275,0,67,0,128,1,"[67,48,4,0,14,19,15,19,16,19,16,19,18,19,19,19,20,19,20,19,21,18,22,18,23,18,24,18,24,18,23,18,23,19,23,19,21,19,19,19,17,19,15,18,15,18,14,17,12,16,9,15,7,16,1,4,0,0,0,0,0,0,0,0,0,0,0,0,0,0,0,0,0,0,-1,-3,-4,-9,-3,-9,-2,-8,-2,-8,-1,-7,0,-5,0,-4,0,-3,0,-1,0,0,1,1,1,3,1,4,1,4,1,5,1,7,2,8,2,9,3,10,4,11,5,12,6,13,7,15,9,16,11,17,11,17]",2026-01-09 12:15:45.083,52,0,83.0,126,4419.0,10,0,0,-8,0,0,0,-8.0,4.0,-998.0
CSI_DATA,77947,60:60:1f:fd:0a:5b,-50,9,0,0,0,0,0,0,0,0,0,-91,0,4,0,761847430,0,67,0,128,1,"[67,48,4,0,-25,0,-26,1,-26,1,-27,2,-28,4,-28,5,-29,5,-29,5,-29,6,-29,8,-29,9,-30,9,-30,10,-30,9,-30,8,-30,8,-30,7,-29,4,-27,3,-26,2,-25,2,-24,2,-22,1,-20,-1,-19,-3,-5,-1,0,0,0,0,0,0,0,0,0,0,0,0,0,0,0,0,0,0,2,0,8,3,7,3,6,4,5,4,4,4,3,3,1,3,0,2,-1,1,-2,0,-3,0,-4,-1,-5,-2,-6,-2,-7,-3,-8,-3,-9,-3,-10,-4,-11,-3,-13,-3,-15,-3,-16,-3,-18,-3,-20,-2,-21,-1,-22,-1]",2026-01-09 12:15:45.142,52,0,83.0,126,4419.0,10,0,0,-8,0,0,0,-8.0,4.0,-998.0
CSI_DATA,77956,60:60:1f:fd:0a:5b,-50,9,0,0,0,0,0,0,0,0,0,-91,0,4,0,761929272,0,67,0,128,1,"[67,48,4,0,-24,-9,-25,-9,-25,-9,-26,-9,-27,-7,-28,-7,-29,-6,-29,-6,-29,-6,-30,-5,-30,-4,-31,-4,-31,-4,-31,-5,-31,-5,-30,-6,-29,-7,-27,-8,-25,-9,-24,-9,-23,-9,-21,-9,-19,-9,-16,-10,-15,-11,-4,-3,0,0,0,0,0,0,0,0,0,0,0,0,0,0,0,0,0,0,1,1,6,4,6,4,4,4,3,4,2,3,1,3,0,2,-1,1,-2,0,-2,-1,-3,-2,-4,-3,-4,-4,-5,-5,-6,-5,-7,-6,-8,-7,-9,-7,-10,-7,-12,-8,-14,-8,-15,-8,-16,-9,-18,-9,-20,-9,-21,-9]",2026-01-09 12:15:45.201,52,0,83.0,126,4418.0,10,0,0,-8,0,0,0,-7.0,2.0,-1003.0
CSI_DATA,77958,60:60:1f:fd:0a:5b,-50,9,0,0,0,0,0,0,0,0,0,-91,0,4,0,761951917,0,67,0,128,1,"[67,48,4,0,-22,-14,-23,-13,-23,-14,-24,-13,-25,-12,-26,-11,-27,-12,-27,-12,-27,-11,-28,-10,-29,-10,-30,-10,-30,-10,-29,-11,-29,-11,-29,-11,-27,-12,-25,-13,-23,-13,-21,-13,-20,-12,-18,-12,-16,-12,-14,-12,-13,-14,-4,-4,0,0,0,0,0,0,0,0,0,0,0,0,0,0,0,0,0,0,1,1,5,5,4,5,3,5,2,5,1,4,0,3,-1,2,-1,0,-2,-1,-2,-2,-3,-3,-3,-4,-4,-5,-4,-6,-4,-7,-5,-8,-6,-9,-7,-9,-8,-9,-10,-10,-11,-11,-12,-12,-13,-12,-16,-13,-17,-13,-18,-14]",2026-01-09 12:15:45.262,52,0,83.0,126,4418.0,10,0,0,-8,0,0,0,-7.0,2.0,-1003.0
CSI_DATA,77971,60:60:1f:fd:0a:5b,-50,9,0,0,0,0,0,0,0,0,0,-91,0,4,0,762051169,0,67,0,128,1,"[67,48,4,0,-26,0,-27,1,-27,1,-28,1,-29,2,-29,3,-29,4,-29,4,-29,5,-29,7,-29,7,-30,8,-30,8,-30,7,-29,7,-29,7,-29,5,-27,3,-26,2,-24,1,-23,0,-21,0,-20,0,-18,-2,-16,-4,-4,-2,0,0,0,0,0,0,0,0,0,0,0,0,0,0,0,0,0,0,0,1,3,5,4,4,4,3,3,3,2,3,0,3,-1,3,-2,2,-3,1,-5,0,-6,0,-7,-1,-7,-2,-8,-3,-9,-3,-10,-4,-11,-4,-13,-4,-14,-4,-15,-3,-17,-3,-18,-3,-19,-3,-21,-2,-23,-1,-24,-2]",2026-01-09 12:15:45.323,52,0,83.0,126,4422.0,10,0,0,-8,0,0,0,-9.0,4.0,-1000.0
CSI_DATA,77976,60:60:1f:fd:0a:5b,-50,9,0,0,0,0,0,0,0,0,0,-91,0,4,0,762094646,0,67,0,128,1,"[67,48,4,0,4,-27,3,-28,3,-28,3,-29,2,-29,1,-30,1,-30,1,-30,0,-31,-2,-31,-2,-32,-3,-32,-3,-32,-1,-32,-1,-32,0,-32,1,-30,3,-29,4,-27,4,-25,4,-24,4,-22,4,-20,5,-17,6,-16,1,-4,0,0,0,0,0,0,0,0,0,0,0,0,0,0,0,0,0,0,-1,1,-4,5,-5,4,-5,3,-5,2,-5,1,-4,0,-3,-2,-2,-3,-1,-4,0,-5,1,-6,2,-7,3,-8,3,-8,4,-9,4,-10,5,-11,5,-12,5,-13,5,-15,5,-16,5,-18,6,-19,5,-21,5,-23,5,-24]",2026-01-09 12:15:45.382,52,0,83.0,126,4421.0,10,0,0,-8,0,0,0,-8.0,3.0,-1001.0
CSI_DATA,77980,60:60:1f:fd:0a:5b,-51,9,0,0,0,0,0,0,0,0,0,-90,0,4,0,762127785,0,67,0,128,1,"[67,48,4,0,1,26,2,27,2,27,3,27,4,28,5,28,5,29,5,29,7,28,8,28,9,29,9,29,9,29,9,29,8,29,8,29,6,29,4,27,3,26,2,24,2,23,1,22,0,20,-2,18,-3,16,-1,4,0,0,0,0,0,0,0,0,0,0,0,0,0,0,0,0,0,0,0,-2,3,-7,3,-6,4,-5,4,-3,4,-2,3,0,2,1,2,2,1,3,0,4,-1,5,-2,6,-2,7,-3,7,-3,8,-3,10,-4,11,-4,12,-4,13,-3,15,-3,16,-3,18,-3,19,-2,21,-1,23,-1,23]",2026-01-09 12:15:45.440,52,0,83.0,126,4421.0,10,0,0,-8,0,0,0,-8.0,3.0,-1001.0
CSI_DATA,77982,60:60:1f:fd:0a:5b,-51,9,0,0,0,0,0,0,0,0,0,-90,0,4,0,762145199,0,67,0,128,1,"[67,48,4,0,8,25,9,25,9,26,9,26,11,26,12,26,13,26,13,26,14,26,15,25,16,26,16,26,17,26,16,26,16,26,16,26,14,26,11,25,9,24,8,23,8,22,7,21,5,19,3,18,1,16,0,4,0,0,0,0,0,0,0,0,0,0,0,0,0,0,0,0,0,0,0,-2,2,-7,2,-6,3,-5,3,-4,3,-3,3,-1,3,0,2,2,2,3,1,4,1,5,0,7,0,7,-1,8,-1,9,0,10,-1,11,0,12,0,14,1,15,2,17,2,18,3,19,4,21,5,23,5,23]",2026-01-09 12:15:45.494,52,0,83.0,126,4423.0,10,0,0,-8,0,0,0,-8.0,3.0,-999.0
CSI_DATA,77987,60:60:1f:fd:0a:5b,-51,9,0,0,0,0,0,0,0,0,0,-90,0,4,0,762186401,0,67,0,128,1,"[67,48,4,0,-25,-12,-26,-11,-26,-11,-26,-11,-27,-10,-28,-9,-28,-9,-29,-9,-29,-8,-30,-7,-31,-7,-31,-7,-31,-6,-31,-7,-31,-8,-31,-8,-29,-9,-27,-11,-25,-11,-23,-11,-22,-11,-20,-10,-18,-10,-15,-11,-13,-11,-4,-3,0,0,0,0,0,0,0,0,0,0,0,0,0,0,0,0,0,0,0,1,3,4,2,4,1,4,-1,4,-2,3,-3,2,-3,1,-4,-1,-5,-2,-5,-3,-6,-4,-6,-5,-6,-6,-7,-7,-7,-7,-8,-8,-9,-9,-10,-9,-11,-10,-13,-10,-14,-10,-16,-11,-17,-13,-20,-15,-21,-14,-21,-13]",2026-01-09 12:15:45.549,52,0,83.0,126,4423.0,10,0,0,-8,0,0,0,-8.0,3.0,-999.0
CSI_DATA,77989,60:60:1f:fd:0a:5b,-51,9,0,0,0,0,0,0,0,0,0,-90,0,4,0,762199526,0,67,0,128,1,"[67,48,4,0,22,-15,22,-16,23,-16,23,-16,22,-18,23,-19,23,-19,22,-19,22,-20,21,-22,21,-22,21,-23,21,-23,22,-22,22,-22,22,-21,22,-19,22,-17,21,-15,20,-14,19,-13,18,-12,17,-10,17,-8,16,-6,3,-2,0,0,0,0,0,0,0,0,0,0,0,0,0,0,0,0,0,0,-2,-1,-6,-1,-6,-1,-5,-2,-4,-3,-3,-3,-1,-4,0,-4,2,-3,3,-3,4,-3,6,-3,7,-3,8,-3,8,-3,9,-3,10,-3,11,-3,12,-4,13,-5,14,-6,15,-6,17,-8,19,-14,19,-18,20,-14,21,-11]",2026-01-09 12:15:45.601,52,0,83.0,126,4419.0,10,0,0,-8,0,0,0,-7.0,1.0,-999.0
CSI_DATA,78009,60:60:1f:fd:0a:5b,-51,9,0,0,0,0,0,0,0,0,0,-90,0,4,0,762379905,0,67,0,128,1,"[67,48,4,0,-14,23,-13,24,-14,24,-13,25,-12,26,-12,27,-12,27,-12,27,-11,28,-10,29,-10,29,-10,30,-9,30,-10,29,-10,29,-10,29,-12,27,-13,25,-14,22,-13,21,-12,19,-12,17,-12,16,-12,14,-12,11,-3,2,0,0,0,0,0,0,0,0,0,0,0,0,0,0,0,0,0,0,1,-1,4,-3,4,-2,3,-1,3,0,2,1,1,2,0,3,-1,3,-2,4,-4,4,-5,5,-6,6,-7,6,-7,6,-8,7,-9,8,-9,8,-10,9,-11,11,-11,12,-12,14,-12,15,-13,16,-13,18,-14,20,-14,20]",2026-01-09 12:15:45.652,52,0,83.0,126,4419.0,10,0,0,-8,0,0,0,-7.0,1.0,-999.0
CSI_DATA,78013,60:60:1f:fd:0a:5b,-51,9,0,0,0,0,0,0,0,0,0,-90,0,4,0,762412854,0,67,0,128,1,"[67,48,4,0,-2,-28,-3,-28,-3,-29,-4,-29,-5,-29,-6,-30,-6,-30,-6,-30,-7,-30,-9,-30,-9,-31,-9,-31,-10,-31,-9,-31,-8,-31,-8,-31,-6,-30,-4,-28,-3,-27,-2,-26,-2,-24,-1,-23,0,-21,2,-19,3,-17,0,-4,0,0,0,0,0,0,0,0,0,0,0,0,0,0,0,0,0,0,-1,1,-3,4,-3,3,-3,2,-4,1,-4,0,-3,-2,-2,-3,-2,-4,-1,-5,0,-6,0,-7,1,-8,2,-9,2,-10,2,-11,2,-12,3,-13,3,-14,2,-15,2,-17,1,-18,1,-20,1,-21,0,-23,0,-25,-1,-26]",2026-01-09 12:15:45.717,52,0,83.0,126,4421.0,10,0,0,-8,0,0,0,-8.0,2.0,-998.0
CSI_DATA,78021,60:60:1f:fd:0a:5b,-51,9,0,0,0,0,0,0,0,0,0,-90,0,4,0,762497585,0,67,0,128,1,"[67,48,4,0,27,1,28,0,28,0,28,0,29,-2,30,-3,30,-3,29,-3,30,-4,30,-6,30,-6,30,-6,31,-6,31,-6,31,-5,31,-5,30,-3,28,-1,26,0,25,1,23,1,22,1,20,2,18,3,16,4,4,1,0,0,0,0,0,0,0,0,0,0,0,0,0,0,0,0,0,0,-2,-1,-5,-3,-4,-3,-3,-4,-2,-4,-1,-3,1,-3,2,-2,3,-1,4,0,5,0,6,1,7,2,8,3,9,3,9,3,10,4,11,4,12,4,14,4,16,4,17,3,20,3,21,4,21,5,22,4,24,3]",2026-01-09 12:15:45.769,52,0,83.0,126,4421.0,10,0,0,-8,0,0,0,-8.0,2.0,-998.0
CSI_DATA,78026,60:60:1f:fd:0a:5b,-51,13,0,0,0,0,0,0,0,0,0,-90,0,4,0,762566542,0,67,0,128,1,"[67,48,4,0,-24,-7,-25,-6,-25,-6,-26,-6,-27,-5,-27,-4,-28,-4,-28,-4,-28,-3,-28,-2,-29,-1,-29,-1,-29,-1,-29,-1,-29,-2,-29,-2,-27,-3,-26,-5,-24,-6,-23,-6,-21,-5,-20,-6,-18,-7,-15,-8,-14,-8,-4,-2,0,0,0,0,0,0,0,0,0,0,0,0,0,0,0,0,0,0,0,0,3,3,2,3,1,3,0,3,-1,2,-2,1,-3,0,-3,-1,-5,-2,-6,-2,-6,-3,-6,-4,-7,-5,-8,-5,-8,-6,-9,-6,-10,-7,-11,-7,-12,-7,-14,-7,-15,-7,-16,-7,-18,-8,-19,-8,-21,-8,-21,-8]",2026-01-09 12:15:45.839,52,0,83.0,126,4426.0,10,0,0,-8,0,0,0,-8.0,3.0,-1000.0
CSI_DATA,78028,60:60:1f:fd:0a:5b,-51,9,0,0,0,0,0,0,0,0,0,-90,0,4,0,762581857,0,67,0,128,1,"[67,48,4,0,14,22,15,22,15,22,16,22,17,22,18,22,18,22,18,22,19,21,20,21,21,21,22,21,22,21,21,22,20,22,20,22,18,22,15,22,13,21,11,20,11,19,10,18,8,17,6,16,5,15,1,3,0,0,0,0,0,0,0,0,0,0,0,0,0,0,0,0,0,0,-1,-2,-2,-6,-1,-5,0,-5,1,-4,1,-3,2,-1,2,0,2,1,2,3,2,4,2,5,2,6,2,7,2,8,3,9,3,10,3,11,4,12,5,13,6,14,7,15,8,16,9,18,10,19,12,20,12,21]",2026-01-09 12:15:45.892,52,0,83.0,126,4426.0,10,0,0,-8,0,0,0,-8.0,3.0,-1000.0
CSI_DATA,78037,60:60:1f:fd:0a:5b,-51,9,0,0,0,0,0,0,0,0,0,-90,0,4,0,762674346,0,67,0,128,1,"[67,48,4,0,14,21,15,21,15,21,16,22,17,22,18,21,19,22,19,21,19,21,21,20,21,20,22,21,22,21,21,21,21,21,20,21,18,22,15,21,13,21,12,20,11,19,10,17,9,17,6,16,4,15,1,3,0,0,0,0,0,0,0,0,0,0,0,0,0,0,0,0,0,0,-1,-2,-1,-6,-1,-5,0,-5,1,-4,1,-3,2,-2,2,0,2,1,2,2,2,4,2,5,3,6,2,7,2,8,3,9,3,10,3,10,4,12,5,13,6,14,7,15,8,16,8,17,10,18,11,19,12,20]",2026-01-09 12:15:45.946,52,0,83.0,126,4420.0,10,0,0,-8,0,0,0,-8.0,2.0,-1002.0
CSI_DATA,78042,60:60:1f:fd:0a:5b,-51,9,0,0,0,0,0,0,0,0,0,-90,0,4,0,762707796,0,67,0,128,1,"[67,48,4,0,-24,-13,-25,-12,-25,-12,-26,-12,-27,-11,-28,-11,-28,-11,-28,-10,-29,-9,-30,-8,-30,-7,-31,-7,-31,-7,-30,-8,-30,-8,-30,-8,-28,-10,-25,-11,-24,-12,-22,-11,-21,-10,-20,-10,-18,-10,-16,-11,-14,-11,-4,-3,0,0,0,0,0,0,0,0,0,0,0,0,0,0,0,0,0,0,0,1,2,4,1,4,0,4,-1,3,-2,2,-2,1,-3,0,-4,-1,-4,-2,-5,-3,-6,-4,-6,-5,-6,-6,-7,-7,-8,-8,-9,-8,-9,-9,-10,-10,-11,-10,-13,-11,-14,-11,-15,-12,-17,-12,-19,-13,-21,-12,-21,-13]",2026-01-09 12:15:46.043,52,0,83.0,126,4417.0,10,0,0,-8,0,0,0,-9.0,2.0,-998.0
CSI_DATA,78055,60:60:1f:fd:0a:5b,-52,13,0,0,0,0,0,0,0,0,0,-90,0,4,0,762826632,0,67,0,128,1,"[67,48,4,0,-2,-27,-2,-28,-2,-28,-3,-29,-4,-29,-5,-30,-5,-30,-6,-30,-7,-30,-8,-30,-8,-31,-9,-31,-9,-31,-8,-31,-8,-31,-7,-30,-5,-29,-3,-28,-2,-27,-1,-25,-2,-24,-2,-23,0,-21,2,-18,2,-17,0,-4,0,0,0,0,0,0,0,0,0,0,0,0,0,0,0,0,0,0,-1,1,-4,5,-4,4,-5,3,-5,2,-5,1,-4,-1,-4,-2,-3,-4,-2,-5,-1,-6,-1,-7,0,-8,1,-9,2,-10,2,-11,2,-12,2,-13,3,-14,3,-15,3,-17,2,-18,2,-19,2,-20,1,-22,0,-24,0,-25]",2026-01-09 12:15:46.099,52,0,83.0,126,4417.0,10,0,0,-8,0,0,0,-9.0,2.0,-998.0
CSI_DATA,78058,60:60:1f:fd:0a:5b,-52,9,0,0,0,0,0,0,0,0,0,-90,0,4,0,762870851,0,67,0,128,1,"[67,48,4,0,24,8,25,8,25,8,26,7,27,7,28,6,28,6,28,6,29,4,29,3,30,3,30,2,30,2,29,3,29,4,29,4,27,5,25,7,24,7,23,7,21,7,19,7,17,7,14,7,13,7,3,1,0,0,0,0,0,0,0,0,0,0,0,0,0,0,0,0,0,0,-2,0,-6,0,-5,-2,-3,-5,-1,-4,-1,-3,0,-4,2,-3,3,-1,4,-1,5,0,5,1,6,3,6,4,7,5,8,5,8,6,9,7,10,7,11,7,13,8,14,8,16,8,17,9,19,9,21,9,22,9]",2026-01-09 12:15:46.161,52,0,83.0,126,4419.0,10,0,0,-8,0,0,0,-8.0,2.0,-998.0
CSI_DATA,78066,60:60:1f:fd:0a:5b,-52,9,0,0,0,0,0,0,0,0,0,-90,0,4,0,762943892,0,67,0,128,1,"[67,48,4,0,-26,8,-26,9,-26,10,-26,11,-26,12,-26,13,-26,13,-26,13,-26,14,-26,15,-27,16,-27,16,-26,17,-26,17,-26,17,-26,16,-25,14,-25,11,-25,10,-25,9,-22,9,-19,7,-19,5,-19,3,-19,1,-5,-1,0,0,0,0,0,0,0,0,0,0,0,0,0,0,0,0,0,0,1,0,4,2,3,2,2,2,1,2,0,3,-1,3,-2,2,-4,2,-5,1,-6,1,-7,1,-8,0,-9,0,-10,-1,-11,-1,-12,0,-13,-1,-14,-1,-16,0,-17,1,-18,2,-19,3,-19,4,-20,4,-24,5,-25,5]",2026-01-09 12:15:46.216,52,0,83.0,126,4424.0,10,0,0,-8,0,0,0,-7.0,3.0,-999.0
CSI_DATA,78070,60:60:1f:fd:0a:5b,-53,9,0,0,0,0,0,0,0,0,0,-90,0,4,0,762991939,0,67,0,128,1,"[67,48,4,0,-13,-22,-15,-23,-15,-23,-15,-23,-17,-23,-18,-23,-18,-23,-18,-23,-19,-23,-20,-22,-21,-22,-22,-22,-22,-22,-20,-23,-20,-23,-20,-22,-17,-22,-15,-22,-13,-22,-12,-21,-12,-20,-11,-18,-9,-16,-6,-16,-4,-16,-1,-4,0,0,0,0,0,0,0,0,0,0,0,0,0,0,0,0,0,0,-1,1,-1,5,-2,5,-3,4,-3,3,-3,2,-4,0,-4,-1,-4,-2,-3,-4,-3,-5,-3,-6,-3,-7,-3,-8,-2,-9,-3,-10,-3,-11,-3,-12,-4,-13,-4,-14,-5,-15,-6,-16,-7,-17,-8,-18,-9,-20,-10,-21,-11,-21]",2026-01-09 12:15:46.268,52,0,83.0,126,4424.0,10,0,0,-8,0,0,0,-7.0,3.0,-999.0
CSI_DATA,78074,60:60:1f:fd:0a:5b,-53,14,0,0,0,0,0,0,0,0,0,-90,0,4,0,763018247,0,67,0,128,1,"[67,48,4,0,2,27,3,28,3,29,4,29,5,30,6,31,7,31,7,31,8,30,10,30,11,31,11,32,11,32,10,31,9,32,9,31,6,30,4,29,3,27,2,25,1,24,1,22,-1,20,-2,18,-3,16,-1,4,0,0,0,0,0,0,0,0,0,0,0,0,0,0,0,0,0,0,1,-2,4,-7,4,-6,4,-5,4,-4,4,-2,4,0,3,1,2,2,1,4,1,5,0,6,-1,7,-2,8,-2,9,-3,10,-3,11,-3,12,-3,13,-3,15,-3,16,-3,18,-2,19,-2,20,-1,22,0,24,0,25]",2026-01-09 12:15:46.345,52,0,83.0,126,4422.0,10,0,0,-8,0,0,0,-8.0,4.0,-997.0
CSI_DATA,78085,60:60:1f:fd:0a:5b,-53,14,0,0,0,0,0,0,0,0,0,-90,0,4,0,763127856,0,67,0,128,1,"[67,48,4,0,22,16,24,16,24,16,25,16,27,15,28,14,28,14,29,14,29,13,31,11,31,11,32,11,32,11,31,12,31,12,31,12,29,14,26,14,24,14,22,14,21,13,19,13,17,13,14,13,12,13,2,3,0,0,0,0,0,0,0,0,0,0,0,0,0,0,0,0,0,0,-1,-2,-2,-8,-1,-7,0,-7,1,-6,1,-5,2,-3,3,-2,3,-1,3,1,4,2,4,4,4,5,5,6,5,7,5,8,6,9,7,10,7,11,8,12,10,13,11,13,13,14,14,15,16,15,18,16,19,17]",2026-01-09 12:15:46.399,52,0,83.0,126,4422.0,10,0,0,-8,0,0,0,-8.0,4.0,-997.0
CSI_DATA,78090,60:60:1f:fd:0a:5b,-53,9,0,0,0,0,0,0,0,0,0,-90,0,4,0,763183185,0,67,0,128,1,"[67,48,4,0,26,-3,26,-4,27,-4,27,-5,28,-7,28,-8,29,-8,29,-8,29,-9,28,-11,29,-12,29,-12,29,-12,29,-11,29,-11,29,-11,28,-9,27,-6,26,-5,25,-4,23,-4,22,-3,20,-2,18,0,16,2,3,0,0,0,0,0,0,0,0,0,0,0,0,0,0,0,0,0,0,0,-2,-2,-7,-5,-6,-5,-5,-5,-3,-5,-2,-5,-1,-4,1,-4,2,-3,3,-2,4,-1,5,-1,6,0,7,1,8,1,9,1,10,2,11,2,12,2,13,2,15,2,16,1,18,1,19,1,21,0,23,-1,23,-1]",2026-01-09 12:15:46.455,52,0,83.0,126,4419.0,10,0,0,-8,0,0,0,-6.0,2.0,-1002.0
CSI_DATA,78095,60:60:1f:fd:0a:5b,-53,9,0,0,0,0,0,0,0,0,0,-90,0,4,0,763233253,0,67,0,128,1,"[67,48,4,0,-17,18,-17,19,-17,19,-17,20,-16,21,-16,22,-16,23,-16,23,-15,23,-14,24,-14,25,-14,26,-14,26,-15,25,-15,25,-15,24,-16,22,-16,20,-16,18,-15,17,-15,16,-15,14,-15,12,-14,10,-14,8,-4,2,0,0,0,0,0,0,0,0,0,0,0,0,0,0,0,0,0,0,1,-1,5,-2,5,-1,5,0,4,0,3,1,2,2,1,2,-1,3,-2,3,-3,3,-4,3,-6,3,-7,3,-8,3,-9,4,-9,4,-10,5,-11,5,-12,6,-13,8,-13,9,-14,10,-15,10,-16,12,-16,14,-16,15]",2026-01-09 12:15:46.505,52,0,83.0,126,4419.0,10,0,0,-8,0,0,0,-6.0,2.0,-1002.0
CSI_DATA,78100,60:60:1f:fd:0a:5b,-53,9,0,0,0,0,0,0,0,0,0,-90,0,4,0,763285967,0,67,0,128,1,"[67,48,4,0,-24,-4,-25,-3,-26,-3,-26,-3,-27,-2,-28,-1,-28,-1,-28,0,-28,1,-29,2,-29,3,-30,3,-30,3,-29,2,-30,2,-29,2,-28,0,-27,-1,-25,-3,-24,-3,-22,-3,-20,-3,-18,-4,-16,-6,-14,-6,-4,-2,0,0,0,0,0,0,0,0,0,0,0,0,0,0,0,0,0,0,0,1,3,4,3,4,2,4,1,4,-1,3,-2,3,-3,2,-3,1,-4,0,-5,-1,-6,-2,-6,-3,-7,-4,-7,-4,-8,-5,-9,-5,-10,-6,-11,-6,-12,-6,-14,-6,-15,-6,-16,-6,-18,-6,-19,-6,-21,-6,-22,-6]",2026-01-09 12:15:46.558,52,0,83.0,126,4420.0,10,0,0,-8,0,0,0,-8.0,3.0,-1000.0
CSI_DATA,78105,60:60:1f:fd:0a:5b,-53,14,0,0,0,0,0,0,0,0,0,-90,0,4,0,763338120,0,67,0,128,1,"[67,48,4,0,-6,-28,-8,-29,-8,-29,-8,-30,-9,-30,-11,-31,-11,-31,-11,-31,-13,-30,-15,-30,-16,-30,-16,-31,-16,-31,-15,-31,-15,-31,-14,-31,-12,-31,-10,-30,-8,-28,-7,-26,-6,-25,-5,-23,-4,-21,-2,-20,0,-18,0,-5,0,0,0,0,0,0,0,0,0,0,0,0,0,0,0,0,0,0,-1,1,-4,5,-4,4,-4,3,-5,2,-5,1,-4,-1,-4,-2,-3,-3,-2,-4,-2,-5,-1,-7,-1,-8,0,-9,1,-10,1,-11,1,-12,1,-13,1,-14,1,-16,0,-17,0,-19,0,-20,-1,-22,-2,-24,-3,-26,-3,-27]",2026-01-09 12:15:46.610,52,0,83.0,126,4420.0,10,0,0,-8,0,0,0,-8.0,3.0,-1000.0
CSI_DATA,78112,60:60:1f:fd:0a:5b,-52,14,0,0,0,0,0,0,0,0,0,-90,0,4,0,763389008,0,67,0,128,1,"[67,48,4,0,-12,21,-11,22,-11,22,-11,22,-10,23,-10,24,-10,25,-10,25,-9,25,-8,26,-8,26,-8,27,-8,27,-8,26,-8,26,-8,26,-10,25,-11,23,-11,21,-10,19,-10,18,-10,17,-10,15,-11,12,-10,10,-3,2,0,0,0,0,0,0,0,0,0,0,0,0,0,0,0,0,0,0,1,-1,4,-2,4,-2,4,-1,3,-1,3,0,2,1,1,2,0,3,-1,3,-2,4,-3,4,-4,4,-5,5,-6,5,-7,6,-8,6,-8,7,-9,8,-10,9,-10,10,-10,11,-11,13,-11,13,-12,15,-12,17,-12,18]",2026-01-09 12:15:46.665,52,0,83.0,126,4420.0,10,0,0,-8,0,0,0,-9.0,8.0,-998.0
CSI_DATA,78118,60:60:1f:fd:0a:5b,-53,14,0,0,0,0,0,0,0,0,0,-90,0,4,0,763454242,0,67,0,128,1,"[67,48,4,0,-3,-27,-5,-27,-5,-27,-6,-28,-7,-29,-8,-29,-8,-29,-8,-29,-10,-29,-12,-30,-13,-30,-13,-30,-14,-30,-13,-30,-12,-31,-11,-31,-9,-31,-7,-29,-6,-26,-4,-24,-3,-22,-3,-22,-1,-21,0,-18,1,-15,0,-4,0,0,0,0,0,0,0,0,0,0,0,0,0,0,0,0,0,0,-1,1,-4,5,-4,4,-4,3,-4,2,-4,1,-4,-1,-3,-2,-2,-3,-1,-4,0,-5,0,-6,1,-7,2,-8,2,-9,2,-10,2,-11,3,-12,3,-13,3,-14,2,-15,2,-17,2,-18,2,-20,0,-23,-1,-25,-1,-25]",2026-01-09 12:15:46.726,52,0,83.0,126,4420.0,10,0,0,-8,0,0,0,-9.0,0.0,-997.0
CSI_DATA,78122,60:60:1f:fd:0a:5b,-53,9,0,0,0,0,0,0,0,0,0,-90,0,4,0,763509775,0,67,0,128,1,"[67,48,4,0,-4,-28,-5,-29,-5,-29,-5,-30,-7,-30,-8,-31,-8,-31,-9,-31,-10,-31,-11,-31,-11,-31,-12,-32,-12,-32,-11,-32,-10,-32,-10,-32,-8,-31,-6,-29,-4,-28,-3,-27,-3,-25,-2,-24,0,-22,2,-19,3,-18,0,-5,0,0,0,0,0,0,0,0,0,0,0,0,0,0,0,0,0,0,-1,1,-3,5,-4,4,-4,3,-4,2,-4,1,-3,0,-3,-2,-2,-3,-1,-4,-1,-5,0,-6,1,-7,1,-8,2,-9,2,-10,2,-11,2,-12,2,-14,2,-15,1,-17,1,-18,0,-20,0,-21,-1,-23,-1,-25,-1,-26]",2026-01-09 12:15:46.782,52,0,83.0,126,4420.0,10,0,0,-8,0,0,0,-9.0,0.0,-997.0
CSI_DATA,78129,60:60:1f:fd:0a:5b,-53,9,0,0,0,0,0,0,0,0,0,-90,0,4,0,763562692,0,67,0,128,1,"[67,48,4,0,4,-25,3,-26,3,-26,3,-27,2,-27,1,-28,1,-29,0,-29,0,-28,-2,-29,-3,-29,-3,-30,-2,-30,-2,-29,-1,-28,-1,-28,0,-27,3,-26,4,-24,3,-23,3,-22,3,-20,4,-18,5,-16,6,-15,1,-4,0,0,0,0,0,0,0,0,0,0,0,0,0,0,0,0,0,0,-2,0,-5,3,-5,2,-5,1,-5,0,-4,-1,-3,-2,-2,-3,-1,-4,0,-5,0,-6,1,-6,2,-7,3,-8,4,-8,4,-9,4,-10,5,-11,5,-12,5,-13,6,-14,6,-16,5,-17,6,-18,6,-20,6,-22,5,-23]",2026-01-09 12:15:46.834,52,0,83.0,126,4420.0,10,0,0,-8,0,0,0,-15.0,-5.0,-993.0
CSI_DATA,78135,60:60:1f:fd:0a:5b,-52,9,0,0,0,0,0,0,0,0,0,-90,0,4,0,763618115,0,67,0,128,1,"[67,48,4,0,-22,12,-22,13,-23,13,-23,14,-23,15,-23,16,-23,16,-23,16,-23,17,-22,18,-22,18,-22,18,-22,18,-23,18,-23,17,-23,17,-23,15,-22,12,-21,11,-21,10,-19,9,-18,7,-17,5,-16,3,-15,2,-4,0,0,0,0,0,0,0,0,0,0,0,0,0,0,0,0,0,0,0,1,-1,4,-1,3,0,2,0,1,1,0,1,-1,2,-2,2,-3,2,-4,2,-6,2,-7,1,-8,1,-9,1,-10,1,-11,2,-12,2,-13,2,-13,2,-14,4,-16,4,-16,5,-17,6,-19,6,-20,6,-19,9,-20,9]",2026-01-09 12:15:46.890,52,0,83.0,126,4420.0,10,0,0,-8,0,0,0,-15.0,-5.0,-993.0
CSI_DATA,78141,60:60:1f:fd:0a:5b,-50,9,0,0,0,0,0,0,0,0,0,-90,0,4,0,763678829,0,67,0,128,1,"[67,48,4,0,10,24,11,25,11,25,12,25,13,25,14,26,14,26,14,26,15,26,17,25,17,26,17,26,17,26,16,26,15,26,15,26,13,25,10,24,8,23,7,22,7,21,6,20,5,18,2,17,1,16,0,3,0,0,0,0,0,0,0,0,0,0,0,0,0,0,0,0,0,0,-1,-1,-4,-4,-4,-3,-3,-3,-2,-2,-2,-1,-2,1,-2,2,-2,3,-2,4,-2,5,-2,7,-2,8,-2,9,-2,10,-2,11,-1,12,-1,13,-1,13,0,15,1,16,2,17,4,18,3,17,4,16,8,21,8,24]",2026-01-09 12:15:46.950,52,0,83.0,127,4420.0,10,0,0,-8,0,0,0,1.0,22.0,-961.0
CSI_DATA,78146,60:60:1f:fd:0a:5b,-48,9,0,0,0,0,0,0,0,0,0,-90,0,4,0,763749030,0,67,0,128,1,"[67,48,4,0,-8,21,-7,22,-8,23,-7,24,-7,25,-6,26,-6,27,-6,27,-6,27,-5,28,-5,29,-5,29,-6,29,-6,29,-7,28,-8,28,-9,26,-10,24,-11,21,-11,20,-11,19,-12,18,-12,16,-12,13,-12,11,-3,2,0,0,0,0,0,0,0,0,0,0,0,0,0,0,0,0,0,0,-1,-2,-3,-5,-3,-5,-4,-5,-4,-4,-4,-4,-4,-3,-4,-2,-5,-1,-5,0,-6,0,-7,1,-7,2,-8,2,-8,3,-9,4,-9,5,-9,6,-9,6,-10,8,-10,9,-10,11,-10,12,-10,13,-10,15,-9,17,-9,18]",2026-01-09 12:15:47.021,52,0,83.5,127,4420.0,10,0,0,-8,0,0,0,32.0,9.0,-1045.0
CSI_DATA,78152,60:60:1f:fd:0a:5b,-48,9,0,0,0,0,0,0,0,0,0,-90,0,4,0,763802675,0,67,0,128,1,"[67,48,4,0,-22,9,-22,10,-23,11,-24,11,-24,13,-25,14,-26,14,-26,15,-26,16,-26,17,-26,18,-27,18,-27,18,-27,16,-28,16,-28,15,-28,12,-27,10,-26,8,-25,6,-24,6,-22,5,-21,3,-19,1,-18,-1,-5,-1,0,0,0,0,0,0,0,0,0,0,0,0,0,0,0,0,0,0,0,-2,3,-8,3,-7,3,-7,2,-7,2,-6,1,-6,0,-6,0,-5,-1,-5,-3,-5,-4,-5,-5,-5,-6,-5,-7,-5,-8,-5,-9,-5,-10,-5,-11,-4,-12,-3,-13,-2,-14,-1,-15,0,-16,1,-18,3,-19,4,-20,5]",2026-01-09 12:15:47.075,52,0,83.5,127,4420.0,10,0,0,-8,0,0,0,32.0,9.0,-1045.0
CSI_DATA,78158,60:60:1f:fd:0a:5b,-49,9,0,0,0,0,0,0,0,0,0,-90,0,4,0,763862981,0,67,0,128,1,"[67,48,4,0,-12,16,-12,17,-11,18,-11,20,-10,21,-9,23,-9,24,-9,24,-8,25,-7,27,-7,28,-7,30,-7,31,-9,31,-10,32,-12,32,-13,31,-15,28,-17,25,-17,23,-17,22,-17,20,-17,18,-18,15,-19,13,-5,3,0,0,0,0,0,0,0,0,0,0,0,0,0,0,0,0,0,0,-3,-4,-9,-15,-9,-15,-9,-15,-8,-14,-8,-13,-7,-13,-7,-12,-8,-11,-8,-10,-9,-9,-10,-8,-11,-7,-12,-6,-13,-5,-14,-5,-15,-4,-15,-4,-14,-3,-14,-2,-15,0,-15,2,-15,4,-15,5,-15,7,-15,10,-14,11]",2026-01-09 12:15:47.135,52,0,83.5,127,4420.0,10,0,0,-9,0,0,0,26.0,7.0,-1210.0
CSI_DATA,78164,60:60:1f:fd:0a:5b,-56,9,0,0,0,0,0,0,0,0,0,-90,0,4,0,763916335,0,67,0,128,1,"[67,48,4,0,6,4,6,3,5,1,5,-1,4,-4,3,-7,2,-9,0,-12,-2,-15,-4,-18,-5,-22,-6,-25,-7,-28,-6,-31,-6,-33,-6,-36,-4,-37,-1,-36,2,-36,2,-35,2,-35,2,-34,3,-32,6,-30,8,-28,2,-7,0,0,0,0,0,0,0,0,0,0,0,0,0,0,0,0,0,0,-4,-4,-13,-16,-13,-15,-14,-14,-14,-13,-14,-13,-14,-12,-13,-10,-13,-9,-12,-7,-12,-5,-11,-3,-11,-1,-10,2,-9,4,-9,6,-9,8,-8,9,-8,10,-7,11,-5,11,-4,11,-2,11,-1,11,1,11,3,10,3,9]",2026-01-09 12:15:47.188,52,0,83.5,127,4420.0,10,0,0,-9,0,0,0,26.0,7.0,-1210.0
CSI_DATA,78171,60:60:1f:fd:0a:5b,-51,13,0,0,0,0,0,0,0,0,0,-90,0,4,0,763969875,0,67,0,128,1,"[67,48,4,0,13,-8,11,-10,9,-12,7,-14,5,-16,3,-18,2,-20,1,-22,0,-25,-2,-27,-2,-28,-3,-30,-2,-32,-1,-33,0,-33,1,-34,3,-33,5,-31,7,-29,8,-27,8,-25,9,-23,9,-21,11,-17,11,-15,2,-4,0,0,0,0,0,0,0,0,0,0,0,0,0,0,0,0,0,0,0,0,1,3,2,3,3,2,4,2,5,2,7,2,8,2,10,2,12,2,14,3,16,3,17,4,18,5,19,6,19,6,19,6,19,6,19,5,20,4,20,3,20,2,20,1,20,0,20,-1,20,-3,19,-4]",2026-01-09 12:15:47.241,52,0,83.5,127,4420.0,10,0,0,-9,0,0,3,7.0,7.0,-1337.0
CSI_DATA,78177,60:60:1f:fd:0a:5b,-45,9,0,0,0,0,0,0,0,0,0,-90,0,4,0,764026199,0,67,0,128,1,"[67,48,4,0,-2,18,-1,17,1,16,3,16,5,15,7,15,9,15,11,14,13,14,15,14,16,14,18,15,19,16,19,18,20,19,20,20,18,21,15,22,13,22,11,22,10,21,9,20,7,18,4,18,2,17,0,4,0,0,0,0,0,0,0,0,0,0,0,0,0,0,0,0,0,0,-1,2,-4,10,-4,11,-5,12,-5,13,-6,14,-6,15,-7,16,-8,16,-9,17,-10,19,-10,20,-11,20,-11,21,-12,21,-12,21,-12,21,-12,21,-12,20,-12,21,-11,22,-11,22,-10,22,-9,22,-8,23,-7,23,-7,22]",2026-01-09 12:15:47.298,52,0,83.5,127,4420.0,10,0,0,-9,0,0,3,7.0,7.0,-1337.0
CSI_DATA,78183,60:60:1f:fd:0a:5b,-46,9,0,0,0,0,0,0,0,0,0,-90,0,4,0,764081803,0,67,0,128,1,"[67,48,4,0,14,-4,13,-6,13,-7,12,-9,11,-11,11,-13,11,-15,11,-17,10,-19,10,-21,10,-23,11,-25,11,-26,13,-27,14,-27,15,-28,17,-26,18,-24,19,-22,18,-21,18,-20,17,-19,17,-17,17,-14,17,-12,4,-3,0,0,0,0,0,0,0,0,0,0,0,0,0,0,0,0,0,0,0,0,3,1,4,1,5,1,5,2,6,2,7,3,8,3,8,4,9,5,10,5,11,5,11,5,11,6,12,6,12,6,13,6,13,6,13,7,14,6,15,5,15,4,15,4,15,4,16,2,17,1,16,0]",2026-01-09 12:15:47.354,52,0,83.5,127,4420.0,13,1,0,-9,0,0,6,0.0,14.0,-1211.0
CSI_DATA,78188,60:60:1f:fd:0a:5b,-51,14,0,0,0,0,0,0,0,0,0,-90,0,4,0,764134297,0,67,0,128,1,"[67,48,4,0,-4,11,-1,12,1,13,3,13,6,14,9,16,12,17,14,19,16,20,19,21,21,22,23,24,24,25,25,26,25,27,26,27,24,28,22,27,22,27,22,26,22,24,22,23,21,22,20,22,18,23,4,5,0,0,0,0,0,0,0,0,0,0,0,0,0,0,0,0,0,0,-2,4,-8,19,-9,18,-10,17,-11,17,-13,15,-14,13,-15,12,-16,10,-16,8,-16,7,-16,6,-16,5,-15,3,-14,3,-13,3,-13,3,-13,3,-12,3,-12,4,-12,5,-12,6,-12,7,-12,8,-11,8,-10,9,-9,10]",2026-01-09 12:15:47.406,52,0,83.5,127,4420.0,13,1,0,-9,0,0,6,0.0,14.0,-1211.0
CSI_DATA,78194,60:60:1f:fd:0a:5b,-51,14,0,0,0,0,0,0,0,0,0,-90,0,4,0,764191025,0,67,0,128,1,"[67,48,4,0,0,-18,-3,-17,-5,-17,-7,-17,-10,-16,-13,-16,-16,-17,-18,-17,-20,-17,-22,-16,-23,-15,-25,-16,-27,-16,-28,-17,-29,-17,-30,-18,-28,-18,-27,-18,-28,-18,-27,-17,-25,-16,-26,-17,-26,-20,-21,-20,-18,-20,-5,-6,0,0,0,0,0,0,0,0,0,0,0,0,0,0,0,0,0,0,-4,-1,-13,-4,-13,-5,-12,-7,-10,-8,-8,-9,-6,-10,-3,-10,-1,-11,1,-11,2,-10,3,-10,4,-10,5,-10,5,-10,5,-10,4,-11,4,-12,5,-13,4,-15,4,-16,4,-18,5,-19,6,-20,5,-20,5,-21,5,-21]",2026-01-09 12:15:47.462,52,10,83.5,127,4459.0,21,1,-1,-9,0,0,7,10.0,6.0,-1310.0
CSI_DATA,78200,60:60:1f:fd:0a:5b,-48,14,0,0,0,0,0,0,0,0,0,-90,0,4,0,764249515,0,67,0,128,1,"[67,48,4,0,2,29,3,30,2,30,2,30,4,30,4,30,5,30,4,29,5,29,6,29,7,29,7,29,7,29,6,29,6,29,5,29,3,28,1,26,0,24,0,23,-1,21,-2,20,-3,19,-5,16,-6,15,-2,3,0,0,0,0,0,0,0,0,0,0,0,0,0,0,0,0,0,0,-1,-2,-3,-8,-3,-7,-3,-7,-3,-6,-2,-5,-2,-4,-2,-2,-2,-1,-2,0,-3,2,-3,3,-4,4,-4,5,-4,6,-4,8,-4,9,-4,10,-4,11,-3,13,-2,15,-1,16,0,18,0,20,1,23,2,25,2,26]",2026-01-09 12:15:47.521,52,10,83.5,127,4469.0,30,1,-1,-9,0,0,8,8.0,18.0,-1148.0
CSI_DATA,78204,60:60:1f:fd:0a:5b,-49,14,0,0,0,0,0,0,0,0,0,-90,0,4,0,764305182,0,67,0,128,1,"[67,48,4,0,-21,-24,-22,-25,-21,-26,-21,-26,-22,-26,-23,-26,-23,-26,-23,-25,-23,-24,-25,-23,-25,-23,-25,-22,-25,-22,-24,-22,-23,-22,-22,-22,-20,-22,-17,-22,-16,-20,-14,-19,-13,-18,-12,-17,-11,-16,-8,-15,-6,-15,-2,-4,0,0,0,0,0,0,0,0,0,0,0,0,0,0,0,0,0,0,2,0,8,0,8,0,9,1,10,1,10,1,10,2,9,2,9,2,8,2,7,2,6,1,5,0,4,0,3,-1,1,-3,0,-4,-2,-5,-3,-7,-5,-8,-6,-10,-8,-12,-10,-13,-12,-15,-15,-17,-17,-18,-18,-20]",2026-01-09 12:15:47.577,52,10,83.5,127,4469.0,30,1,-1,-9,0,0,8,8.0,18.0,-1148.0
CSI_DATA,78211,60:60:1f:fd:0a:5b,-54,9,0,0,0,0,0,0,0,0,0,-90,0,4,0,764362146,0,67,0,128,1,"[67,48,4,0,-23,1,-23,2,-24,3,-24,4,-24,6,-24,8,-23,9,-23,10,-22,12,-21,14,-21,16,-20,18,-19,20,-19,21,-19,22,-20,24,-20,24,-21,23,-21,22,-21,21,-21,21,-20,22,-20,20,-21,17,-21,15,-5,3,0,0,0,0,0,0,0,0,0,0,0,0,0,0,0,0,0,0,2,-6,9,-24,10,-25,12,-26,14,-26,16,-25,18,-23,19,-21,20,-18,20,-16,19,-14,17,-12,15,-10,12,-7,8,-6,5,-5,1,-5,-2,-5,-5,-5,-8,-5,-11,-5,-13,-5,-15,-5,-17,-5,-18,-5,-20,-3,-21,-3]",2026-01-09 12:15:47.634,52,20,83.5,127,4464.0,39,1,-1,-9,0,0,8,14.0,1.0,-1083.0
CSI_DATA,78216,60:60:1f:fd:0a:5b,-51,9,0,0,0,0,0,0,0,0,0,-90,0,4,0,764415428,0,67,0,128,1,"[67,48,4,0,10,-1,11,-2,11,-4,12,-5,12,-8,12,-10,13,-12,13,-14,13,-16,13,-19,13,-21,13,-23,14,-25,16,-27,17,-28,18,-29,20,-29,22,-27,22,-26,22,-26,22,-26,22,-25,23,-24,24,-22,24,-20,6,-5,0,0,0,0,0,0,0,0,0,0,0,0,0,0,0,0,0,0,-5,3,-17,12,-17,12,-17,12,-18,12,-18,11,-19,10,-18,10,-18,9,-17,8,-16,8,-15,8,-14,8,-13,7,-11,7,-9,7,-8,7,-6,7,-4,6,-2,6,0,7,1,6,3,6,4,6,6,5,8,5,8,4]",2026-01-09 12:15:47.687,52,20,83.5,127,4464.0,39,1,-1,-9,0,0,8,14.0,1.0,-1083.0
CSI_DATA,78222,60:60:1f:fd:0a:5b,-51,9,0,0,0,0,0,0,0,0,0,-90,0,4,0,764471578,0,67,0,128,1,"[67,48,4,0,-2,-15,-3,-15,-3,-15,-5,-14,-6,-13,-8,-12,-10,-12,-11,-11,-13,-10,-15,-9,-17,-8,-19,-7,-21,-7,-23,-7,-24,-6,-25,-6,-26,-8,-26,-9,-26,-9,-26,-9,-27,-8,-27,-7,-26,-8,-25,-10,-24,-12,-6,-4,0,0,0,0,0,0,0,0,0,0,0,0,0,0,0,0,0,0,6,2,26,12,25,13,25,14,25,15,24,16,23,17,22,17,21,18,20,18,19,17,19,17,17,16,16,15,14,13,13,12,11,10,10,8,8,6,7,4,6,1,5,-1,3,-4,2,-6,2,-8,1,-11,0,-13]",2026-01-09 12:15:47.744,52,30,83.5,127,4479.0,48,1,0,-9,0,0,7,7.0,14.0,-975.0
CSI_DATA,78227,60:60:1f:fd:0a:5b,-51,9,0,0,0,0,0,0,0,0,0,-90,0,4,0,764533973,0,67,0,128,1,"[67,48,4,0,-12,-2,-12,-1,-11,0,-10,0,-10,1,-9,2,-8,3,-8,3,-7,4,-6,4,-5,5,-4,5,-3,5,-3,5,-2,4,-1,4,-1,3,-1,3,0,2,0,1,1,1,1,0,2,-1,3,-1,4,-1,1,-1,0,0,0,0,0,0,0,0,0,0,0,0,0,0,0,0,0,0,-2,-9,-4,-36,-3,-37,-2,-38,0,-39,2,-40,4,-40,5,-39,6,-39,6,-38,7,-38,6,-37,6,-35,5,-33,5,-31,4,-29,3,-27,2,-25,1,-23,-1,-21,-2,-19,-4,-16,-5,-14,-6,-12,-8,-10,-9,-8,-10,-7]",2026-01-09 12:15:47.806,52,30,83.5,127,4479.0,48,1,0,-9,0,0,7,7.0,14.0,-975.0
CSI_DATA,78232,60:60:1f:fd:0a:5b,-51,9,0,0,0,0,0,0,0,0,0,-90,0,4,0,764588780,0,67,0,128,1,"[67,48,4,0,-15,-1,-14,-1,-13,-1,-12,-1,-11,0,-10,0,-9,0,-8,0,-7,1,-6,2,-5,2,-5,3,-4,3,-4,4,-5,4,-5,4,-6,4,-7,4,-7,3,-7,3,-8,2,-8,2,-8,1,-9,-1,-9,-2,-3,-1,0,0,0,0,0,0,0,0,0,0,0,0,0,0,0,0,0,0,-6,-4,-24,-17,-24,-18,-24,-20,-25,-21,-24,-23,-23,-24,-22,-24,-21,-25,-21,-25,-21,-25,-21,-24,-21,-23,-19,-22,-18,-21,-17,-19,-17,-18,-16,-16,-16,-14,-16,-12,-17,-10,-17,-8,-17,-7,-16,-6,-16,-4,-18,-3,-18,-2]",2026-01-09 12:15:47.861,52,40,83.5,127,4483.0,54,1,0,-9,0,0,6,7.0,-6.0,-955.0
CSI_DATA,78233,60:60:1f:fd:0a:5b,-59,9,0,0,0,0,0,0,0,0,0,-90,0,4,0,764639952,0,67,0,128,1,"[67,48,4,0,-3,12,-4,11,-7,9,-9,8,-11,6,-13,4,-14,2,-15,1,-15,-1,-16,-1,-16,-2,-16,-3,-16,-3,-14,-4,-12,-4,-11,-4,-9,-3,-7,-2,-6,0,-5,2,-4,4,-4,6,-4,7,-6,8,-7,9,-2,2,0,0,0,0,0,0,0,0,0,0,0,0,0,0,0,0,0,0,-7,6,-28,24,-29,24,-29,25,-30,25,-30,25,-29,24,-29,24,-29,23,-29,23,-28,23,-26,22,-24,21,-22,20,-20,18,-17,17,-14,16,-11,15,-9,14,-6,14,-3,13,-1,13,1,13,2,13,2,13,3,13,2,14]",2026-01-09 12:15:47.912,52,40,83.5,127,4483.0,54,1,0,-9,0,0,6,7.0,-6.0,-955.0
CSI_DATA,78238,60:60:1f:fd:0a:5b,-55,9,0,0,0,0,0,0,0,0,0,-90,0,4,0,764694469,0,67,0,128,1,"[67,48,4,0,-13,-10,-15,-9,-16,-8,-19,-7,-22,-7,-24,-7,-26,-8,-27,-9,-28,-9,-30,-9,-31,-10,-31,-11,-31,-12,-29,-14,-29,-15,-28,-15,-25,-16,-22,-16,-20,-16,-19,-15,-19,-13,-19,-13,-18,-13,-17,-13,-16,-14,-4,-4,0,0,0,0,0,0,0,0,0,0,0,0,0,0,0,0,0,0,2,-2,9,-5,9,-5,8,-5,8,-6,8,-6,8,-6,8,-6,8,-6,7,-7,7,-7,6,-8,4,-9,4,-9,3,-10,1,-10,0,-11,-1,-12,-2,-13,-3,-14,-4,-15,-5,-16,-5,-16,-6,-16,-7,-16,-8,-16,-9,-15]",2026-01-09 12:15:47.967,52,40,83.5,128,4492.0,61,1,0,-9,0,0,5,0.0,4.0,-892.0
CSI_DATA,78243,60:60:1f:fd:0a:5b,-51,9,0,0,0,0,0,0,0,0,0,-90,0,4,0,764752805,0,67,0,128,1,"[67,48,4,0,20,-5,20,-7,20,-8,20,-9,21,-12,22,-14,24,-15,25,-15,25,-16,26,-17,27,-17,28,-17,29,-17,30,-15,30,-14,31,-13,31,-10,29,-8,28,-6,28,-5,27,-5,26,-5,25,-3,25,0,26,1,6,0,0,0,0,0,0,0,0,0,0,0,0,0,0,0,0,0,0,0,1,2,7,9,8,9,8,9,9,9,9,10,9,10,9,11,9,11,9,11,10,11,10,11,10,10,11,10,11,9,12,8,13,7,13,7,14,6,15,5,16,4,18,3,18,2,17,3,18,3,20,2,21,0]",2026-01-09 12:15:48.024,52,50,84.0,128,4499.0,66,0,0,-9,0,0,4,1.0,-4.0,-882.0
CSI_DATA,78251,60:60:1f:fd:0a:5b,-50,9,0,0,0,0,0,0,0,0,0,-90,0,4,0,764817132,0,67,0,128,1,"[67,48,4,0,15,9,16,8,17,7,18,6,20,5,21,4,23,4,24,4,25,3,27,2,27,2,28,3,29,3,29,5,30,5,31,6,29,8,27,10,26,10,25,10,24,10,24,11,23,12,20,13,19,15,4,3,0,0,0,0,0,0,0,0,0,0,0,0,0,0,0,0,0,0,-1,2,-2,11,-2,12,-3,12,-3,13,-3,13,-4,13,-4,13,-4,13,-4,14,-3,14,-3,14,-2,14,-2,14,-2,14,-1,13,0,13,1,13,2,13,3,12,5,12,6,12,8,12,9,12,11,12,12,11,13,11]",2026-01-09 12:15:48.088,52,50,84.0,128,4499.0,66,0,0,-9,0,0,4,1.0,-4.0,-882.0
CSI_DATA,78256,60:60:1f:fd:0a:5b,-50,9,0,0,0,0,0,0,0,0,0,-90,0,4,0,764874668,0,67,0,128,1,"[67,48,4,0,-3,14,-2,15,-1,16,1,17,3,19,4,20,5,21,5,22,7,23,8,25,8,26,9,27,9,28,9,29,8,30,8,31,6,31,4,30,3,29,2,28,2,28,2,27,0,26,-2,25,-4,24,-1,6,0,0,0,0,0,0,0,0,0,0,0,0,0,0,0,0,0,0,-4,-2,-13,-7,-14,-7,-14,-8,-15,-9,-14,-9,-14,-10,-14,-10,-14,-10,-13,-10,-14,-9,-14,-8,-14,-8,-13,-7,-13,-7,-13,-6,-13,-4,-12,-4,-11,-3,-11,-1,-10,1,-10,3,-9,4,-9,6,-8,7,-7,9,-7,10]",2026-01-09 12:15:48.146,52,50,84.0,128,4508.0,71,0,0,-9,0,0,3,2.0,0.0,-876.0
CSI_DATA,78260,60:60:1f:fd:0a:5b,-50,9,0,0,0,0,0,0,0,0,0,-90,0,4,0,764929007,0,67,0,128,1,"[67,48,4,0,-8,11,-8,13,-8,14,-8,15,-7,18,-7,19,-7,21,-7,22,-7,24,-6,26,-5,27,-5,28,-5,29,-6,29,-6,30,-7,31,-8,30,-10,28,-11,27,-11,26,-10,26,-10,25,-10,23,-11,22,-12,20,-3,5,0,0,0,0,0,0,0,0,0,0,0,0,0,0,0,0,0,0,0,-4,4,-13,4,-13,4,-14,5,-15,5,-14,5,-14,6,-13,6,-13,5,-13,5,-13,4,-13,3,-13,3,-12,2,-11,1,-11,1,-10,0,-9,0,-8,-1,-6,-2,-5,-3,-3,-4,-2,-5,0,-6,2,-7,4,-7,5]",2026-01-09 12:15:48.201,52,50,84.0,128,4508.0,71,0,0,-9,0,0,3,2.0,0.0,-876.0
CSI_DATA,78268,60:60:1f:fd:0a:5b,-50,9,0,0,0,0,0,0,0,0,0,-90,0,4,0,764986046,0,67,0,128,1,"[67,48,4,0,-11,-15,-12,-16,-13,-18,-14,-19,-17,-19,-19,-20,-20,-21,-21,-22,-23,-22,-25,-23,-26,-24,-27,-25,-28,-25,-29,-26,-30,-26,-29,-26,-27,-26,-26,-25,-24,-25,-23,-25,-23,-24,-23,-22,-21,-22,-20,-23,-19,-24,-5,-6,0,0,0,0,0,0,0,0,0,0,0,0,0,0,0,0,0,0,0,2,1,12,1,13,1,13,1,14,0,14,-1,14,-1,13,-1,13,-1,12,-1,12,0,11,0,10,0,9,0,8,0,7,0,7,0,5,0,4,-1,2,-1,1,-2,-1,-2,-3,-3,-5,-4,-7,-6,-9,-6,-11]",2026-01-09 12:15:48.258,52,50,84.0,128,4514.0,74,0,0,-9,0,0,2,7.0,-5.0,-884.0
CSI_DATA,78274,60:60:1f:fd:0a:5b,-49,9,0,0,0,0,0,0,0,0,0,-90,0,4,0,765040435,0,67,0,128,1,"[67,48,4,0,16,-10,17,-11,19,-11,20,-13,20,-15,22,-17,23,-18,24,-18,24,-19,23,-21,23,-22,25,-23,25,-25,26,-25,26,-24,27,-24,27,-23,25,-21,24,-20,23,-20,23,-21,21,-20,20,-17,20,-15,19,-15,4,-4,0,0,0,0,0,0,0,0,0,0,0,0,0,0,0,0,0,0,-3,-2,-11,-5,-11,-5,-11,-5,-11,-6,-11,-6,-11,-7,-10,-7,-10,-7,-9,-6,-9,-6,-8,-6,-8,-5,-7,-5,-6,-5,-6,-4,-5,-4,-4,-4,-2,-4,-1,-4,1,-5,2,-5,4,-5,6,-5,8,-6,10,-7,12,-7]",2026-01-09 12:15:48.313,52,50,84.0,128,4514.0,74,0,0,-9,0,0,2,7.0,-5.0,-884.0
CSI_DATA,78280,60:60:1f:fd:0a:5b,-49,9,0,0,0,0,0,0,0,0,0,-90,0,4,0,765093086,0,67,0,128,1,"[67,48,4,0,-9,-19,-9,-20,-9,-21,-10,-23,-12,-24,-13,-25,-14,-26,-14,-26,-15,-26,-17,-27,-18,-27,-20,-27,-20,-28,-20,-28,-20,-29,-21,-29,-19,-29,-17,-28,-16,-27,-15,-26,-15,-25,-15,-24,-14,-23,-13,-22,-12,-22,-3,-6,0,0,0,0,0,0,0,0,0,0,0,0,0,0,0,0,0,0,-2,1,-6,5,-7,5,-7,5,-8,5,-8,5,-8,4,-8,4,-8,3,-8,3,-7,3,-7,2,-7,2,-6,2,-6,1,-6,1,-6,0,-6,-1,-5,-2,-5,-3,-5,-5,-5,-6,-5,-7,-5,-9,-6,-11,-6,-13,-6,-15]",2026-01-09 12:15:48.365,52,60,84.0,128,4519.0,76,0,0,-9,0,0,1,5.0,-9.0,-913.0
CSI_DATA,78287,60:60:1f:fd:0a:5b,-48,14,0,0,0,0,0,0,0,0,0,-90,0,4,0,765149213,0,67,0,128,1,"[67,48,4,0,17,13,19,14,19,15,20,15,22,15,23,16,24,16,25,17,26,16,28,15,29,15,30,15,31,15,31,15,31,16,32,16,30,16,27,17,26,16,25,15,24,14,24,13,22,12,20,13,19,13,4,3,0,0,0,0,0,0,0,0,0,0,0,0,0,0,0,0,0,0,0,-2,2,-8,2,-8,2,-9,3,-9,4,-9,4,-8,4,-7,5,-7,5,-6,4,-6,4,-5,4,-5,4,-4,3,-4,4,-3,5,-2,5,-1,6,0,6,1,7,2,8,3,8,5,9,6,11,8,13,9,14,10]",2026-01-09 12:15:48.421,52,60,84.0,128,4515.0,78,0,0,-10,0,0,0,4.0,5.0,-916.0
CSI_DATA,78293,60:60:1f:fd:0a:5b,-48,9,0,0,0,0,0,0,0,0,0,-90,0,4,0,765202201,0,67,0,128,1,"[67,48,4,0,-12,-22,-12,-23,-12,-24,-13,-25,-14,-26,-15,-27,-16,-28,-16,-28,-18,-28,-20,-28,-21,-28,-22,-28,-23,-28,-22,-29,-22,-29,-23,-29,-21,-29,-18,-28,-17,-27,-17,-26,-17,-24,-17,-23,-16,-22,-14,-22,-13,-22,-4,-6,0,0,0,0,0,0,0,0,0,0,0,0,0,0,0,0,0,0,-2,1,-5,4,-5,4,-6,4,-7,4,-7,3,-7,3,-7,2,-7,2,-7,1,-7,1,-7,0,-6,0,-6,-1,-6,-2,-6,-2,-6,-3,-6,-4,-6,-5,-6,-6,-6,-8,-6,-9,-7,-11,-7,-12,-8,-14,-10,-16,-10,-18]",2026-01-09 12:15:48.474,52,60,84.0,128,4515.0,78,0,0,-10,0,0,0,4.0,5.0,-916.0
CSI_DATA,78300,60:60:1f:fd:0a:5b,-47,14,0,0,0,0,0,0,0,0,0,-90,0,4,0,765254971,0,67,0,128,1,"[67,48,4,0,-11,20,-11,21,-12,22,-12,23,-12,24,-12,25,-13,26,-13,26,-12,27,-11,28,-11,30,-11,31,-11,31,-11,31,-11,31,-11,32,-12,30,-13,28,-12,26,-11,25,-10,25,-10,24,-9,22,-10,21,-10,20,-3,5,0,0,0,0,0,0,0,0,0,0,0,0,0,0,0,0,0,0,1,0,4,1,5,2,5,2,5,2,5,3,5,4,4,4,4,4,3,5,3,5,2,5,2,5,1,5,1,5,0,5,0,6,-1,6,-2,7,-3,8,-3,9,-4,10,-5,11,-6,12,-7,14,-8,15,-8,16]",2026-01-09 12:15:48.527,52,60,84.0,128,4519.0,78,0,0,-10,0,0,0,9.0,13.0,-965.0
CSI_DATA,78305,60:60:1f:fd:0a:5b,-47,9,0,0,0,0,0,0,0,0,0,-90,0,4,0,765308235,0,67,0,128,1,"[67,48,4,0,16,-18,17,-19,18,-20,18,-20,18,-22,19,-23,19,-24,20,-24,19,-25,18,-27,18,-28,18,-29,18,-29,19,-29,19,-29,19,-29,20,-28,20,-25,19,-24,18,-23,16,-23,15,-22,15,-21,15,-19,15,-17,3,-5,0,0,0,0,0,0,0,0,0,0,0,0,0,0,0,0,0,0,-2,-1,-5,-3,-6,-3,-6,-4,-6,-4,-5,-5,-5,-6,-4,-6,-3,-6,-3,-6,-2,-6,-2,-6,-1,-6,-1,-6,0,-6,1,-7,1,-7,2,-7,3,-7,4,-8,6,-9,7,-10,8,-10,9,-11,10,-13,12,-15,13,-15]",2026-01-09 12:15:48.580,52,60,84.0,128,4519.0,78,0,0,-10,0,0,0,9.0,13.0,-965.0
CSI_DATA,78312,60:60:1f:fd:0a:5b,-47,9,0,0,0,0,0,0,0,0,0,-90,0,4,0,765366372,0,67,0,128,1,"[67,48,4,0,-25,6,-27,7,-27,6,-28,7,-29,8,-30,9,-31,9,-31,9,-32,10,-32,12,-32,12,-32,13,-33,14,-33,13,-33,13,-33,14,-32,12,-31,10,-29,9,-28,9,-27,9,-25,9,-24,8,-23,6,-22,5,-6,1,0,0,0,0,0,0,0,0,0,0,0,0,0,0,0,0,0,0,0,1,2,4,1,4,1,5,0,6,0,6,-1,6,-2,6,-2,6,-3,6,-4,5,-4,5,-5,4,-5,4,-5,4,-6,3,-7,3,-8,3,-9,3,-10,3,-11,4,-13,4,-14,4,-16,4,-18,4,-20,5,-21,5]",2026-01-09 12:15:48.638,52,60,84.0,128,4525.0,78,0,0,-9,0,0,0,-6.0,18.0,-1039.0
CSI_DATA,78318,60:60:1f:fd:0a:5b,-46,9,0,0,0,0,0,0,0,0,0,-90,0,4,0,765420089,0,67,0,128,1,"[67,48,4,0,23,-3,24,-4,24,-3,25,-4,26,-5,27,-6,27,-6,28,-6,28,-7,28,-8,29,-8,30,-9,30,-10,29,-10,29,-11,29,-11,28,-8,26,-6,25,-6,24,-7,22,-7,22,-7,21,-6,20,-3,18,-1,4,0,0,0,0,0,0,0,0,0,0,0,0,0,0,0,0,0,0,0,-1,-1,-1,-4,-1,-4,0,-5,0,-5,1,-5,2,-5,2,-5,3,-5,4,-4,4,-4,4,-4,5,-3,5,-3,6,-3,6,-3,7,-3,7,-2,8,-2,9,-2,11,-2,12,-2,13,-2,14,-2,16,-2,18,-3,20,-3]",2026-01-09 12:15:48.692,52,60,84.0,128,4525.0,78,0,0,-9,0,0,0,-6.0,18.0,-1039.0
CSI_DATA,78324,60:60:1f:fd:0a:5b,-47,13,0,0,0,0,0,0,0,0,0,-90,0,4,0,765472628,0,67,0,128,1,"[67,48,4,0,8,-27,9,-28,10,-28,10,-29,10,-30,9,-31,10,-32,10,-32,9,-32,8,-33,7,-33,7,-34,7,-34,7,-34,7,-34,7,-33,8,-31,9,-29,9,-28,8,-27,7,-26,6,-25,6,-23,7,-22,8,-21,2,-5,0,0,0,0,0,0,0,0,0,0,0,0,0,0,0,0,0,0,-1,-1,-4,-1,-4,-2,-4,-2,-4,-3,-4,-4,-4,-4,-3,-5,-3,-6,-2,-6,-1,-7,-1,-7,0,-7,1,-8,1,-8,1,-9,2,-9,2,-10,3,-11,4,-12,4,-14,4,-15,5,-16,6,-17,7,-19,7,-22,7,-23]",2026-01-09 12:15:48.744,52,60,84.0,128,4517.0,78,0,0,-9,0,0,0,13.0,10.0,-996.0
CSI_DATA,78330,60:60:1f:fd:0a:5b,-46,9,0,0,0,0,0,0,0,0,0,-90,0,4,0,765530385,0,67,0,128,1,"[67,48,4,0,-16,-21,-16,-21,-16,-22,-17,-23,-18,-23,-18,-23,-19,-24,-19,-24,-20,-24,-21,-23,-21,-23,-22,-22,-22,-22,-22,-23,-21,-23,-21,-23,-19,-23,-17,-22,-16,-20,-15,-19,-15,-18,-15,-17,-14,-17,-12,-17,-10,-16,-3,-4,0,0,0,0,0,0,0,0,0,0,0,0,0,0,0,0,0,0,-1,0,-3,0,-3,0,-4,0,-5,0,-5,-1,-6,-2,-6,-2,-6,-3,-6,-4,-6,-5,-6,-6,-6,-6,-6,-7,-5,-7,-6,-8,-6,-8,-6,-9,-6,-10,-7,-10,-8,-11,-8,-12,-9,-13,-10,-15,-11,-17,-12,-19,-13,-19]",2026-01-09 12:15:48.803,52,60,84.0,128,4517.0,78,0,0,-9,0,0,0,13.0,10.0,-996.0
CSI_DATA,78337,60:60:1f:fd:0a:5b,-46,9,0,0,0,0,0,0,0,0,0,-90,0,4,0,765584299,0,67,0,128,1,"[67,48,4,0,-3,29,-3,30,-4,30,-4,30,-4,31,-3,32,-3,32,-3,32,-2,32,0,33,1,32,2,31,1,32,-1,33,-1,33,-1,32,-2,31,-3,28,-4,27,-3,25,-3,24,-2,23,-2,22,-3,20,-4,19,-1,4,0,0,0,0,0,0,0,0,0,0,0,0,0,0,0,0,0,0,0,0,2,1,2,2,3,2,3,3,3,4,3,5,2,6,1,7,1,8,0,8,0,9,0,9,-1,10,-2,10,-2,11,-2,11,-2,12,-2,13,-2,14,-3,16,-3,17,-2,18,-3,20,-3,23,-2,25,-2,25]",2026-01-09 12:15:48.856,52,60,84.0,128,4529.0,79,0,0,-9,0,0,0,4.0,21.0,-993.0
CSI_DATA,78343,60:60:1f:fd:0a:5b,-46,9,0,0,0,0,0,0,0,0,0,-90,0,4,0,765637496,0,67,0,128,1,"[67,48,4,0,25,-8,25,-8,26,-8,26,-8,26,-9,27,-9,27,-9,27,-9,26,-10,26,-11,26,-12,26,-12,26,-12,26,-11,26,-11,26,-11,25,-9,23,-8,22,-7,21,-7,19,-7,18,-7,17,-6,17,-5,16,-4,4,-1,0,0,0,0,0,0,0,0,0,0,0,0,0,0,0,0,0,0,0,-1,1,-3,1,-3,2,-4,2,-4,3,-4,4,-5,5,-4,6,-4,7,-4,8,-4,9,-3,10,-3,10,-3,10,-2,11,-3,11,-3,12,-2,13,-2,14,-3,15,-4,16,-4,16,-4,17,-4,19,-6,21,-7,22,-7]",2026-01-09 12:15:48.910,52,60,84.0,128,4529.0,79,0,0,-9,0,0,0,4.0,21.0,-993.0
CSI_DATA,78350,60:60:1f:fd:0a:5b,-46,9,0,0,0,0,0,0,0,0,0,-90,0,4,0,765696068,0,67,0,128,1,"[67,48,4,0,-23,20,-24,21,-24,20,-25,20,-24,21,-25,21,-24,21,-24,21,-23,21,-22,23,-22,23,-22,23,-22,23,-22,22,-22,22,-21,21,-22,19,-21,17,-19,15,-18,14,-17,14,-15,13,-15,12,-15,11,-14,10,-4,2,0,0,0,0,0,0,0,0,0,0,0,0,0,0,0,0,0,0,-1,0,-2,3,-2,3,-2,4,-3,5,-4,5,-5,6,-6,7,-7,7,-8,7,-9,7,-10,8,-11,8,-11,7,-12,7,-13,7,-13,8,-14,8,-14,9,-15,10,-16,11,-17,12,-17,13,-18,14,-19,16,-20,18,-21,19]",2026-01-09 12:15:48.968,52,60,84.0,129,4521.0,79,0,0,-9,0,0,0,20.0,20.0,-1053.0
CSI_DATA,78354,60:60:1f:fd:0a:5b,-47,9,0,0,0,0,0,0,0,0,0,-90,0,4,0,765745948,0,67,0,128,1,"[67,48,4,0,-10,29,-9,29,-10,29,-10,29,-10,29,-9,30,-9,29,-9,29,-8,28,-7,28,-6,28,-5,28,-6,28,-7,28,-7,28,-7,27,-8,25,-9,23,-8,21,-8,20,-7,19,-6,18,-7,17,-7,15,-7,14,-2,3,0,0,0,0,0,0,0,0,0,0,0,0,0,0,0,0,0,0,-1,0,-1,3,-1,4,-1,5,-1,6,-1,7,-2,8,-2,9,-3,10,-4,10,-5,11,-6,12,-6,13,-7,13,-8,13,-8,13,-8,14,-8,14,-9,15,-8,16,-9,18,-9,19,-8,20,-9,22,-8,24,-8,26,-8,27]",2026-01-09 12:15:49.018,52,60,84.0,129,4520.0,80,0,-1,-9,0,0,0,-4.0,5.0,-989.0
CSI_DATA,78361,60:60:1f:fd:0a:5b,-47,9,0,0,0,0,0,0,0,0,0,-90,0,4,0,765797987,0,67,0,128,1,"[67,48,4,0,18,-29,18,-30,19,-29,19,-29,18,-29,18,-30,18,-30,17,-31,16,-32,13,-32,13,-30,14,-29,14,-29,14,-28,15,-27,15,-26,15,-24,15,-22,14,-19,13,-18,12,-18,12,-17,11,-15,11,-13,11,-12,2,-3,0,0,0,0,0,0,0,0,0,0,0,0,0,0,0,0,0,0,0,-2,2,-5,2,-6,2,-7,2,-8,3,-9,4,-10,5,-11,6,-12,7,-13,9,-13,10,-14,11,-14,12,-14,12,-14,12,-14,12,-15,13,-15,14,-16,14,-17,14,-19,14,-20,14,-21,15,-22,16,-25,16,-27,17,-28]",2026-01-09 12:15:49.070,52,60,84.0,129,4520.0,80,0,-1,-9,0,0,0,-4.0,5.0,-989.0
CSI_DATA,78368,60:60:1f:fd:0a:5b,-47,9,0,0,0,0,0,0,0,0,0,-90,0,4,0,765851967,0,67,0,128,1,"[67,48,4,0,23,-20,24,-21,24,-20,24,-19,23,-20,23,-21,23,-20,22,-19,22,-20,21,-20,20,-20,20,-20,20,-20,20,-19,20,-18,19,-18,19,-16,18,-14,17,-12,15,-12,14,-11,13,-10,12,-9,12,-7,11,-6,2,-2,0,0,0,0,0,0,0,0,0,0,0,0,0,0,0,0,0,0,1,-1,4,-4,4,-4,4,-5,5,-6,6,-7,7,-8,8,-8,9,-8,11,-9,12,-9,14,-9,14,-9,15,-9,15,-8,16,-9,16,-9,16,-9,17,-9,17,-11,18,-12,18,-13,19,-14,19,-15,20,-17,22,-19,22,-19]",2026-01-09 12:15:49.124,52,60,84.0,129,4519.0,82,1,-1,-9,0,0,0,0.0,0.0,-1003.0
CSI_DATA,78374,60:60:1f:fd:0a:5b,-47,9,0,0,0,0,0,0,0,0,0,-90,0,4,0,765904188,0,67,0,128,1,"[67,48,4,0,-25,-12,-26,-12,-25,-13,-25,-13,-25,-12,-25,-12,-24,-12,-23,-12,-23,-11,-24,-10,-24,-9,-24,-9,-23,-9,-22,-10,-21,-10,-20,-9,-19,-10,-17,-10,-16,-9,-14,-9,-13,-9,-12,-8,-12,-8,-10,-8,-8,-8,-2,-2,0,0,0,0,0,0,0,0,0,0,0,0,0,0,0,0,0,0,-2,-1,-6,-3,-6,-3,-7,-3,-8,-3,-9,-4,-9,-4,-10,-5,-11,-6,-12,-7,-13,-8,-14,-9,-14,-9,-14,-10,-13,-11,-14,-11,-15,-11,-15,-12,-15,-12,-16,-12,-17,-11,-18,-11,-19,-11,-20,-12,-22,-11,-24,-11,-24,-12]",2026-01-09 12:15:49.178,52,60,84.0,129,4519.0,82,1,-1,-9,0,0,0,0.0,0.0,-1003.0
CSI_DATA,78380,60:60:1f:fd:0a:5b,-47,9,0,0,0,0,0,0,0,0,0,-90,0,4,0,765969586,0,67,0,128,1,"[67,48,4,0,1,31,1,31,1,30,0,30,0,29,1,29,0,29,0,28,2,27,3,26,3,26,3,25,3,25,2,24,2,24,2,23,0,21,-1,19,-2,17,-2,16,-2,15,-2,14,-2,13,-3,11,-4,10,-1,2,0,0,0,0,0,0,0,0,0,0,0,0,0,0,0,0,0,0,0,1,1,6,1,7,1,8,2,9,2,10,1,11,1,13,0,14,0,16,-1,17,-1,18,-2,19,-3,19,-3,19,-3,20,-3,21,-4,21,-4,21,-3,22,-3,23,-2,24,-1,25,-1,26,0,28,1,29,1,30]",2026-01-09 12:15:49.241,52,60,84.0,129,4517.0,83,0,0,-9,0,0,0,15.0,7.0,-991.0
CSI_DATA,78386,60:60:1f:fd:0a:5b,-48,13,0,0,0,0,0,0,0,0,0,-90,0,4,0,766021770,0,67,0,128,1,"[67,48,4,0,19,-22,19,-22,19,-21,19,-21,18,-21,18,-21,17,-21,17,-20,16,-20,14,-21,14,-21,14,-20,14,-20,14,-19,14,-18,13,-17,13,-15,13,-12,11,-11,10,-10,10,-9,9,-9,8,-8,7,-6,7,-5,1,-1,0,0,0,0,0,0,0,0,0,0,0,0,0,0,0,0,0,0,0,-2,3,-6,3,-7,3,-8,4,-9,5,-9,6,-10,7,-11,9,-11,10,-12,11,-13,12,-13,13,-13,14,-13,15,-12,15,-13,16,-13,16,-13,16,-13,17,-14,17,-15,17,-16,17,-17,17,-18,18,-20,18,-22,19,-22]",2026-01-09 12:15:49.294,52,60,84.0,129,4517.0,83,0,0,-9,0,0,0,15.0,7.0,-991.0
CSI_DATA,78392,60:60:1f:fd:0a:5b,-47,9,0,0,0,0,0,0,0,0,0,-90,0,4,0,766077872,0,67,0,128,1,"[67,48,4,0,7,-33,7,-32,7,-31,8,-31,7,-31,6,-30,6,-30,6,-28,5,-28,3,-28,3,-27,3,-27,3,-26,4,-25,4,-24,4,-23,5,-21,6,-18,5,-16,5,-15,4,-14,3,-12,3,-11,4,-9,4,-8,1,-2,0,0,0,0,0,0,0,0,0,0,0,0,0,0,0,0,0,0,-1,-2,-2,-9,-2,-9,-2,-11,-2,-12,-1,-13,-1,-15,0,-16,1,-18,3,-19,4,-20,4,-22,6,-23,7,-23,8,-23,8,-23,8,-23,9,-23,9,-23,9,-25,9,-26,8,-27,8,-27,8,-28,7,-30,6,-32,7,-32]",2026-01-09 12:15:49.350,52,60,84.0,129,4529.0,84,0,0,-9,0,0,0,-6.0,18.0,-931.0
CSI_DATA,78399,60:60:1f:fd:0a:5b,-48,9,0,0,0,0,0,0,0,0,0,-90,0,4,0,766131213,0,67,0,128,1,"[67,48,4,0,-21,23,-20,23,-20,22,-20,22,-19,22,-19,22,-18,21,-18,20,-17,20,-15,20,-15,20,-14,20,-14,19,-14,18,-14,17,-13,16,-13,14,-12,11,-11,10,-10,9,-9,8,-8,7,-7,6,-7,4,-6,3,-2,0,0,0,0,0,0,0,0,0,0,0,0,0,0,0,0,0,0,0,-1,1,-2,7,-3,7,-3,8,-4,10,-5,11,-6,12,-8,13,-9,14,-11,14,-13,15,-14,16,-15,16,-17,15,-17,15,-18,15,-18,15,-19,15,-19,15,-19,16,-19,17,-19,18,-19,19,-20,19,-20,21,-20,23,-21,23]",2026-01-09 12:15:49.403,52,60,84.0,129,4529.0,84,0,0,-9,0,0,0,-6.0,18.0,-931.0
CSI_DATA,78406,60:60:1f:fd:0a:5b,-48,9,0,0,0,0,0,0,0,0,0,-90,0,4,0,766185171,0,67,0,128,1,"[67,48,4,0,23,-21,23,-21,23,-20,22,-19,21,-19,21,-20,20,-19,19,-19,18,-19,16,-19,16,-19,15,-19,15,-18,15,-17,14,-16,13,-15,13,-13,12,-11,11,-10,9,-9,8,-9,7,-8,6,-7,5,-5,5,-4,1,-1,0,0,0,0,0,0,0,0,0,0,0,0,0,0,0,0,0,0,0,-2,3,-7,3,-8,4,-9,5,-10,6,-11,7,-11,9,-12,11,-12,13,-13,14,-13,16,-14,17,-14,18,-13,19,-12,19,-12,20,-13,21,-13,21,-13,20,-14,21,-15,22,-15,22,-16,22,-17,23,-19,23,-20,24,-20]",2026-01-09 12:15:49.457,52,60,84.0,129,4524.0,86,0,0,-9,0,0,0,4.0,6.0,-1011.0
CSI_DATA,78412,60:60:1f:fd:0a:5b,-48,9,0,0,0,0,0,0,0,0,0,-90,0,4,0,766238743,0,67,0,128,1,"[67,48,4,0,29,3,29,3,28,3,27,3,27,2,26,2,26,2,25,2,24,0,24,-1,22,-2,22,-2,22,-2,21,-1,20,0,19,1,17,2,15,2,13,3,12,2,11,-1,10,-1,9,0,7,0,6,1,1,0,0,0,0,0,0,0,0,0,0,0,0,0,0,0,0,0,0,0,1,-1,6,-3,7,-4,8,-4,9,-4,11,-4,12,-3,14,-3,15,-1,17,0,18,1,20,2,20,3,21,4,21,5,21,5,22,5,21,6,21,7,22,6,23,6,24,6,25,5,26,6,27,5,29,4,29,4]",2026-01-09 12:15:49.510,52,60,84.0,129,4524.0,86,0,0,-9,0,0,0,4.0,6.0,-1011.0
CSI_DATA,78418,60:60:1f:fd:0a:5b,-49,9,0,0,0,0,0,0,0,0,0,-90,0,4,0,766290695,0,67,0,128,1,"[67,48,4,0,14,-26,14,-26,14,-25,14,-24,13,-25,12,-25,12,-24,12,-23,10,-23,9,-23,8,-23,8,-22,8,-22,8,-21,8,-19,8,-18,8,-16,7,-14,7,-12,5,-12,4,-11,4,-9,3,-8,3,-6,2,-5,0,-2,0,0,0,0,0,0,0,0,0,0,0,0,0,0,0,0,0,0,-1,-2,-1,-6,-1,-7,-1,-8,-1,-10,0,-11,1,-12,2,-14,4,-15,5,-16,7,-17,8,-18,9,-18,11,-18,12,-18,12,-18,13,-18,14,-18,14,-18,14,-19,14,-20,14,-21,14,-22,15,-23,15,-24,14,-26,15,-26]",2026-01-09 12:15:49.563,52,70,84.0,129,4532.0,86,0,0,-9,0,0,0,19.0,7.0,-977.0
CSI_DATA,78423,60:60:1f:fd:0a:5b,-49,9,0,0,0,0,0,0,0,0,0,-90,0,4,0,766350954,0,67,0,128,1,"[67,48,4,0,28,-6,28,-6,27,-5,27,-5,26,-6,26,-7,25,-7,24,-7,23,-8,23,-9,22,-9,21,-9,21,-9,20,-8,20,-7,19,-7,17,-5,15,-4,13,-3,12,-4,10,-4,9,-4,8,-2,9,1,8,3,2,0,0,0,0,0,0,0,0,0,0,0,0,0,0,0,0,0,0,0,0,-1,2,-2,2,-5,3,-6,4,-5,7,-5,10,-6,11,-6,12,-6,14,-5,17,-5,18,-4,19,-3,20,-2,20,-1,21,-1,21,-1,22,0,22,0,23,0,24,-1,24,-1,25,-2,25,-2,27,-4,28,-6,29,-5]",2026-01-09 12:15:49.622,52,70,84.0,129,4532.0,87,0,0,-9,0,0,0,31.0,4.0,-970.0
CSI_DATA,78430,60:60:1f:fd:0a:5b,-49,9,0,0,0,0,0,0,0,0,0,-90,0,4,0,766401064,0,67,0,128,1,"[67,48,4,0,16,24,16,23,15,23,14,22,15,22,16,21,15,21,15,20,15,19,15,18,15,17,15,17,15,16,14,16,13,15,12,15,10,14,8,13,8,10,7,9,6,8,5,7,5,6,4,5,3,5,0,1,0,0,0,0,0,0,0,0,0,0,0,0,0,0,0,0,0,0,1,0,5,0,5,1,7,1,8,2,9,4,9,5,10,7,10,9,10,11,11,13,11,14,10,16,10,17,9,18,9,18,9,18,8,19,8,20,9,20,10,21,11,21,12,21,12,22,13,23,15,24,15,24]",2026-01-09 12:15:49.672,52,70,84.0,129,4532.0,87,0,0,-9,0,0,0,31.0,4.0,-970.0
CSI_DATA,78435,60:60:1f:fd:0a:5b,-49,9,0,0,0,0,0,0,0,0,0,-90,0,4,0,766458041,0,67,0,128,1,"[67,48,4,0,7,-28,6,-28,7,-27,7,-26,6,-26,5,-26,5,-25,4,-24,3,-24,2,-24,1,-23,1,-23,1,-23,1,-22,2,-21,2,-19,3,-17,3,-15,3,-13,2,-12,1,-11,1,-9,0,-8,0,-7,0,-6,0,-2,0,0,0,0,0,0,0,0,0,0,0,0,0,0,0,0,0,0,-1,-2,-4,-5,-4,-6,-5,-7,-5,-9,-4,-11,-3,-12,-2,-14,0,-15,1,-17,2,-18,3,-19,5,-20,6,-20,7,-19,7,-20,7,-20,8,-20,9,-20,9,-21,9,-21,8,-22,8,-23,8,-24,8,-26,7,-27,8,-27]",2026-01-09 12:15:49.730,52,70,84.0,129,4524.0,87,0,0,-9,0,0,0,11.0,9.0,-997.0
CSI_DATA,78442,60:60:1f:fd:0a:5b,-49,9,0,0,0,0,0,0,0,0,0,-90,0,4,0,766513319,0,67,0,128,1,"[67,48,4,0,25,16,25,16,25,15,25,15,25,15,25,14,24,13,24,12,23,11,24,9,23,9,23,8,23,8,22,8,21,8,20,7,17,7,15,7,13,7,11,6,10,5,10,4,8,4,7,4,5,3,1,0,0,0,0,0,0,0,0,0,0,0,0,0,0,0,0,0,0,0,1,-1,6,-3,7,-3,8,-3,10,-2,11,-1,12,1,13,3,15,5,16,7,16,8,17,10,17,11,16,13,15,14,16,14,16,15,16,15,16,16,17,16,18,16,19,16,20,16,21,16,22,16,24,17,25,17]",2026-01-09 12:15:49.785,52,70,84.0,129,4524.0,87,0,0,-9,0,0,0,11.0,9.0,-997.0
CSI_DATA,78448,60:60:1f:fd:0a:5b,-49,9,0,0,0,0,0,0,0,0,0,-90,0,4,0,766564533,0,67,0,128,1,"[67,48,4,0,-14,-27,-14,-27,-13,-27,-13,-26,-14,-25,-14,-25,-14,-24,-14,-23,-15,-22,-16,-21,-16,-20,-16,-19,-16,-19,-15,-18,-14,-18,-13,-17,-12,-16,-10,-15,-8,-13,-8,-12,-7,-11,-6,-10,-6,-9,-5,-8,-4,-6,-1,-2,0,0,0,0,0,0,0,0,0,0,0,0,0,0,0,0,0,0,-2,-1,-8,-2,-9,-3,-10,-4,-11,-5,-11,-7,-11,-9,-11,-11,-11,-13,-10,-15,-10,-17,-9,-18,-9,-19,-7,-20,-6,-21,-6,-21,-6,-21,-6,-22,-6,-22,-6,-22,-7,-23,-8,-24,-9,-24,-9,-25,-11,-26,-12,-27,-12,-28]",2026-01-09 12:15:49.837,52,70,84.0,129,4530.0,86,0,0,-9,0,0,0,4.0,2.0,-981.0
CSI_DATA,78454,60:60:1f:fd:0a:5b,-50,9,0,0,0,0,0,0,0,0,0,-90,0,4,0,766620533,0,67,0,128,1,"[67,48,4,0,28,2,28,1,27,2,27,1,26,0,26,-1,26,-1,25,-2,24,-3,24,-5,23,-5,23,-6,23,-6,22,-5,21,-5,20,-4,19,-3,17,-2,15,-2,13,-2,11,-2,10,-3,10,-3,9,-2,7,-1,1,0,0,0,0,0,0,0,0,0,0,0,0,0,0,0,0,0,0,0,1,-2,6,-8,7,-8,8,-8,10,-8,12,-7,14,-6,15,-5,16,-3,18,-2,18,0,19,1,19,2,19,3,19,4,19,5,19,5,19,5,19,6,20,5,21,5,22,4,23,4,24,4,25,3,27,3,28,3]",2026-01-09 12:15:49.892,52,70,84.0,129,4530.0,86,0,0,-9,0,0,0,4.0,2.0,-981.0
CSI_DATA,78461,60:60:1f:fd:0a:5b,-50,9,0,0,0,0,0,0,0,0,0,-90,0,4,0,766671843,0,67,0,128,1,"[67,48,4,0,-12,-25,-12,-24,-11,-24,-11,-23,-12,-22,-13,-22,-13,-21,-13,-20,-14,-19,-15,-18,-16,-18,-16,-17,-16,-16,-15,-16,-15,-16,-14,-15,-12,-14,-11,-13,-9,-12,-9,-11,-9,-10,-8,-8,-7,-7,-6,-7,-5,-6,-2,-2,0,0,0,0,0,0,0,0,0,0,0,0,0,0,0,0,0,0,-3,-2,-12,-5,-12,-6,-13,-8,-13,-10,-13,-11,-12,-13,-12,-15,-11,-16,-10,-18,-9,-19,-10,-19,-9,-19,-7,-19,-6,-20,-5,-20,-6,-20,-5,-20,-5,-20,-6,-20,-6,-20,-7,-21,-8,-22,-8,-22,-10,-23,-11,-24,-11,-25]",2026-01-09 12:15:49.944,52,70,84.0,130,4522.0,86,0,0,-9,0,0,0,46.0,4.0,-1020.0
CSI_DATA,78468,60:60:1f:fd:0a:5b,-49,9,0,0,0,0,0,0,0,0,0,-90,0,4,0,766728013,0,67,0,128,1,"[67,48,4,0,23,16,23,16,22,16,21,15,22,14,22,13,22,13,22,12,22,11,23,9,22,8,22,8,23,7,23,6,22,6,21,7,20,6,17,6,15,5,13,4,12,3,12,3,11,2,10,2,9,3,2,0,0,0,0,0,0,0,0,0,0,0,0,0,0,0,0,0,0,0,3,0,15,1,16,2,17,3,18,4,19,6,19,8,19,10,19,12,19,13,19,15,19,15,18,16,17,16,16,16,15,16,16,15,15,15,15,15,16,15,17,15,18,15,19,15,19,16,21,16,22,16,23,17]",2026-01-09 12:15:50.000,52,70,84.0,130,4522.0,86,0,0,-9,0,0,0,46.0,4.0,-1020.0
CSI_DATA,78474,60:60:1f:fd:0a:5b,-49,9,0,0,0,0,0,0,0,0,0,-90,0,4,0,766780424,0,67,0,128,1,"[67,48,4,0,21,-15,21,-15,21,-14,20,-14,19,-14,18,-15,18,-15,17,-14,17,-15,16,-16,15,-16,15,-17,15,-17,16,-16,16,-16,15,-15,15,-13,14,-11,13,-10,12,-10,10,-10,8,-9,8,-9,8,-7,8,-6,2,-2,0,0,0,0,0,0,0,0,0,0,0,0,0,0,0,0,0,0,3,-4,13,-13,14,-14,16,-15,18,-15,20,-15,22,-14,23,-13,25,-12,26,-12,26,-12,26,-12,26,-11,25,-10,25,-10,24,-10,23,-11,23,-11,22,-11,22,-12,22,-13,22,-14,21,-15,21,-15,23,-16,23,-17,23,-16]",2026-01-09 12:15:50.053,52,70,83.5,130,4524.0,86,0,0,-9,0,0,0,14.0,-17.0,-989.0
CSI_DATA,78481,60:60:1f:fd:0a:5b,-49,9,0,0,0,0,0,0,0,0,0,-90,0,4,0,766835849,0,67,0,128,1,"[67,48,4,0,-23,-5,-23,-5,-21,-5,-21,-5,-20,-4,-20,-4,-20,-4,-19,-4,-19,-3,-19,-2,-17,-1,-16,-1,-18,-1,-19,-3,-18,-4,-17,-4,-16,-5,-14,-5,-13,-4,-12,-4,-12,-3,-11,-2,-10,-2,-9,-3,-9,-4,-3,-1,0,0,0,0,0,0,0,0,0,0,0,0,0,0,0,0,0,0,-5,-1,-18,-4,-19,-5,-21,-5,-22,-6,-23,-8,-24,-9,-24,-10,-25,-12,-25,-13,-26,-13,-26,-13,-26,-13,-25,-12,-24,-12,-24,-12,-25,-11,-24,-10,-24,-10,-24,-8,-25,-7,-25,-7,-26,-6,-26,-6,-26,-5,-27,-5,-26,-5]",2026-01-09 12:15:50.108,52,70,83.5,130,4524.0,86,0,0,-9,0,0,0,14.0,-17.0,-989.0
CSI_DATA,78487,60:60:1f:fd:0a:5b,-48,9,0,0,0,0,0,0,0,0,0,-90,0,4,0,766892401,0,67,0,128,1,"[67,48,4,0,12,-19,11,-18,11,-17,11,-16,10,-16,9,-15,9,-14,9,-14,8,-13,8,-13,8,-13,8,-12,9,-11,9,-10,9,-10,9,-9,9,-8,9,-6,8,-5,7,-5,6,-5,6,-5,6,-4,6,-4,6,-3,1,-1,0,0,0,0,0,0,0,0,0,0,0,0,0,0,0,0,0,0,2,-4,10,-14,11,-15,12,-16,14,-18,16,-18,17,-18,19,-18,20,-18,22,-18,23,-19,23,-19,23,-19,23,-18,22,-18,21,-18,20,-19,20,-19,19,-19,18,-20,18,-21,17,-22,16,-22,16,-21,16,-22,16,-23,15,-23]",2026-01-09 12:15:50.164,52,70,83.5,130,4518.0,85,1,0,-9,0,0,0,28.0,13.0,-967.0
CSI_DATA,78494,60:60:1f:fd:0a:5b,-48,9,0,0,0,0,0,0,0,0,0,-90,0,4,0,766964461,0,67,0,128,1,"[67,48,4,0,-13,18,-12,17,-11,15,-11,14,-10,14,-9,13,-9,12,-9,11,-8,10,-8,10,-8,9,-9,9,-9,8,-9,6,-9,5,-9,4,-9,3,-8,1,-8,1,-7,1,-6,2,-6,1,-5,1,-6,0,-7,0,-2,0,0,0,0,0,0,0,0,0,0,0,0,0,0,0,0,0,0,0,-2,2,-8,11,-10,13,-11,15,-13,16,-15,16,-17,16,-18,17,-20,17,-21,18,-22,18,-22,18,-22,18,-22,18,-22,17,-21,17,-21,18,-20,18,-20,18,-19,19,-19,20,-18,21,-17,21,-17,21,-16,21,-16,22,-15,21]",2026-01-09 12:15:50.236,52,70,83.5,130,4528.0,85,1,0,-9,0,0,0,3.0,-13.0,-1000.0
CSI_DATA,78501,60:60:1f:fd:0a:5b,-47,9,0,0,0,0,0,0,0,0,0,-90,0,4,0,767017184,0,67,0,128,1,"[67,48,4,0,23,-2,22,-2,21,-2,19,-2,18,-2,17,-2,16,-2,15,-2,14,-1,13,-2,12,-1,11,0,10,1,9,2,8,2,7,3,5,3,4,3,3,3,2,2,2,2,2,2,2,2,1,3,1,3,0,0,0,0,0,0,0,0,0,0,0,0,0,0,0,0,0,0,0,0,3,-1,15,-3,16,-3,18,-3,20,-3,22,-2,23,-1,25,0,26,2,28,3,29,3,30,4,30,4,29,4,29,5,29,4,29,3,29,3,29,3,29,2,30,1,30,1,30,0,29,0,29,-1,29,-1,28,-1]",2026-01-09 12:15:50.288,52,70,83.5,130,4528.0,85,1,0,-9,0,0,0,3.0,-13.0,-1000.0
CSI_DATA,78507,60:60:1f:fd:0a:5b,-47,9,0,0,0,0,0,0,0,0,0,-90,0,4,0,767071008,0,67,0,128,1,"[67,48,4,0,11,25,11,24,10,22,10,21,10,19,9,18,9,17,8,16,7,15,7,13,6,12,4,11,3,11,2,9,1,8,1,7,0,5,-1,4,-1,3,-1,3,-1,3,-1,3,-2,3,-3,3,-2,-1,-1,-1,0,0,0,0,0,0,0,0,0,0,0,0,0,0,0,0,0,0,2,3,8,13,9,14,10,16,10,18,10,21,10,23,9,25,8,27,8,29,8,30,8,32,8,32,7,32,7,32,7,32,8,32,7,32,7,32,8,32,9,32,10,32,11,32,10,32,12,32,13,31,12,30]",2026-01-09 12:15:50.343,52,70,83.5,130,4517.0,85,1,0,-9,0,0,0,16.0,-7.0,-1042.0
CSI_DATA,78513,60:60:1f:fd:0a:5b,-46,9,0,0,0,0,0,0,0,0,0,-90,0,4,0,767122922,0,67,0,128,1,"[67,48,4,0,-14,26,-13,25,-12,23,-12,22,-11,21,-10,21,-9,19,-9,17,-8,16,-7,15,-7,14,-7,13,-6,11,-6,9,-5,8,-4,7,-3,6,-3,5,-2,4,-2,4,-1,4,-1,3,-2,3,-2,2,-2,1,-1,0,0,0,0,0,0,0,0,0,0,0,0,0,0,0,0,0,0,0,-1,3,-3,13,-3,15,-4,16,-5,18,-7,20,-8,21,-10,22,-12,23,-14,24,-15,25,-17,26,-17,26,-18,26,-19,26,-19,26,-18,27,-19,26,-19,26,-19,27,-19,28,-18,29,-18,29,-18,28,-18,29,-17,31,-17,30]",2026-01-09 12:15:50.395,52,70,83.5,130,4517.0,85,1,0,-9,0,0,0,16.0,-7.0,-1042.0
CSI_DATA,78518,60:60:1f:fd:0a:5b,-46,9,0,0,0,0,0,0,0,0,0,-90,0,4,0,767175634,0,67,0,128,1,"[67,48,4,0,-16,22,-15,22,-14,20,-14,20,-13,19,-12,19,-11,17,-11,16,-10,15,-9,15,-8,14,-8,12,-7,11,-6,10,-5,9,-4,8,-4,7,-3,7,-3,6,-2,6,-2,5,-2,5,-2,4,-2,3,-2,3,-1,0,0,0,0,0,0,0,0,0,0,0,0,0,0,0,0,0,0,0,-1,2,-4,10,-5,11,-6,13,-7,14,-8,16,-10,16,-11,17,-13,18,-15,19,-16,20,-17,21,-18,21,-19,20,-20,20,-20,20,-20,21,-20,20,-21,20,-21,22,-21,23,-21,23,-20,23,-20,23,-20,24,-19,25,-19,25]",2026-01-09 12:15:50.448,52,70,83.5,130,4518.0,85,1,0,-9,0,0,0,8.0,-4.0,-991.0
CSI_DATA,78527,60:60:1f:fd:0a:5b,-46,9,0,0,0,0,0,0,0,0,0,-90,0,4,0,767236771,0,67,0,128,1,"[67,48,4,0,16,23,16,22,15,21,15,20,15,19,15,18,14,17,13,16,13,15,12,14,12,13,11,12,11,11,10,10,9,8,9,8,8,7,7,7,7,6,7,5,6,5,6,5,5,5,4,5,3,5,0,1,0,0,0,0,0,0,0,0,0,0,0,0,0,0,0,0,0,0,2,1,8,6,9,6,10,7,11,8,12,10,13,12,13,14,14,16,14,18,14,19,14,21,14,22,14,23,13,23,13,24,14,24,14,24,13,25,14,25,15,25,16,26,16,26,16,26,17,26,17,26,17,26]",2026-01-09 12:15:50.508,52,70,83.5,130,4518.0,85,1,0,-9,0,0,0,8.0,-4.0,-991.0
CSI_DATA,78534,60:60:1f:fd:0a:5b,-46,9,0,0,0,0,0,0,0,0,0,-90,0,4,0,767289084,0,67,0,128,1,"[67,48,4,0,1,-27,1,-26,1,-25,1,-24,0,-24,0,-23,0,-22,0,-21,-1,-20,-1,-19,-1,-18,-2,-17,-2,-16,-2,-14,-2,-14,-3,-13,-2,-12,-2,-11,-2,-11,-2,-10,-2,-9,-2,-9,-2,-9,-1,-8,0,-7,0,-2,0,0,0,0,0,0,0,0,0,0,0,0,0,0,0,0,0,0,-1,-3,-3,-9,-3,-10,-3,-12,-4,-13,-3,-15,-3,-16,-2,-18,-1,-19,0,-21,1,-22,1,-23,2,-24,3,-24,4,-24,4,-24,3,-25,4,-26,4,-26,4,-27,4,-27,3,-28,3,-28,4,-28,3,-29,2,-30,3,-29]",2026-01-09 12:15:50.561,52,70,83.5,130,4517.0,85,1,0,-9,0,0,0,10.0,-3.0,-997.0
CSI_DATA,78540,60:60:1f:fd:0a:5b,-46,9,0,0,0,0,0,0,0,0,0,-90,0,4,0,767347773,0,67,0,128,1,"[67,48,4,0,1,27,1,26,1,25,1,24,1,24,1,23,1,22,1,21,2,20,2,19,2,18,2,17,3,16,2,15,3,14,3,13,3,12,2,11,2,11,2,11,2,10,2,10,1,9,0,8,-1,7,-1,1,0,0,0,0,0,0,0,0,0,0,0,0,0,0,0,0,0,0,0,1,3,8,3,8,3,10,3,11,3,13,3,14,2,16,2,17,1,19,1,21,0,22,0,23,-1,23,-2,23,-2,24,-2,25,-2,25,-3,25,-2,26,-2,26,-1,27,-1,28,-1,28,-1,29,0,30,0,29]",2026-01-09 12:15:50.619,52,70,83.5,130,4521.0,85,1,1,-9,0,0,0,-13.0,-6.0,-1013.0
CSI_DATA,78545,60:60:1f:fd:0a:5b,-45,9,0,0,0,0,0,0,0,0,0,-90,0,4,0,767398014,0,67,0,128,1,"[67,48,4,0,-9,27,-8,27,-8,26,-8,25,-7,25,-7,24,-7,23,-7,21,-6,21,-5,20,-5,19,-5,19,-4,18,-4,16,-3,16,-2,15,-2,14,-2,13,-3,13,-3,12,-3,12,-3,11,-3,10,-4,9,-5,8,-2,1,0,0,0,0,0,0,0,0,0,0,0,0,0,0,0,0,0,0,0,1,1,8,1,8,1,10,1,11,0,13,0,15,-1,16,-2,18,-3,19,-4,20,-5,21,-6,22,-7,22,-8,23,-8,23,-8,24,-9,24,-10,24,-10,25,-10,26,-10,27,-9,27,-10,27,-10,28,-9,30,-9,30]",2026-01-09 12:15:50.670,52,70,83.5,130,4521.0,85,1,1,-9,0,0,0,-13.0,-6.0,-1013.0
CSI_DATA,78553,60:60:1f:fd:0a:5b,-45,9,0,0,0,0,0,0,0,0,0,-90,0,4,0,767455022,0,67,0,128,1,"[67,48,4,0,-1,29,0,29,-1,28,-1,28,0,27,0,26,0,26,0,25,0,24,1,23,1,21,1,21,2,20,2,18,2,18,3,17,2,16,2,15,1,14,1,14,1,13,1,13,0,12,-1,11,-2,10,-1,2,0,0,0,0,0,0,0,0,0,0,0,0,0,0,0,0,0,0,0,1,1,7,1,8,2,9,2,11,2,12,2,14,1,16,1,17,0,19,-1,21,-2,22,-2,23,-3,23,-4,24,-4,24,-4,25,-4,25,-5,26,-4,27,-4,28,-3,29,-3,29,-3,30,-3,30,-2,31,-2,31]",2026-01-09 12:15:50.726,52,70,83.5,130,4528.0,85,1,0,-9,0,0,0,28.0,-1.0,-1015.0
CSI_DATA,78559,60:60:1f:fd:0a:5b,-45,9,0,0,0,0,0,0,0,0,0,-90,0,4,0,767507084,0,67,0,128,1,"[67,48,4,0,24,-16,23,-16,23,-15,23,-15,22,-16,21,-16,21,-15,19,-14,19,-14,18,-14,17,-14,15,-14,14,-13,14,-13,13,-13,12,-13,12,-12,12,-11,11,-10,11,-10,10,-10,10,-9,10,-7,10,-6,10,-5,2,-1,0,0,0,0,0,0,0,0,0,0,0,0,0,0,0,0,0,0,1,-2,5,-6,5,-6,6,-8,7,-9,8,-10,10,-11,11,-11,13,-11,15,-11,17,-12,18,-12,19,-12,20,-11,21,-11,21,-11,22,-12,22,-11,23,-11,24,-13,24,-14,24,-14,25,-15,25,-14,26,-15,27,-16,27,-16]",2026-01-09 12:15:50.779,52,70,83.5,130,4528.0,85,1,0,-9,0,0,0,28.0,-1.0,-1015.0
CSI_DATA,78566,60:60:1f:fd:0a:5b,-45,9,0,0,0,0,0,0,0,0,0,-90,0,4,0,767569843,0,67,0,128,1,"[67,48,4,0,-29,-10,-29,-9,-28,-9,-27,-9,-27,-9,-27,-8,-26,-8,-24,-8,-23,-7,-23,-6,-22,-6,-22,-5,-21,-4,-19,-4,-19,-4,-18,-3,-17,-3,-16,-4,-15,-4,-15,-4,-15,-4,-14,-3,-13,-4,-12,-5,-11,-6,-3,-2,0,0,0,0,0,0,0,0,0,0,0,0,0,0,0,0,0,0,-2,-1,-7,-1,-8,-1,-9,-1,-11,0,-13,-1,-14,-2,-16,-3,-17,-4,-18,-5,-20,-6,-22,-7,-22,-8,-22,-9,-23,-10,-23,-10,-24,-10,-24,-11,-24,-12,-25,-11,-27,-11,-27,-12,-28,-12,-28,-12,-29,-11,-31,-11,-30,-11]",2026-01-09 12:15:50.842,52,70,83.5,130,4526.0,85,1,0,-9,0,0,0,-1.0,-1.0,-970.0
CSI_DATA,78572,60:60:1f:fd:0a:5b,-45,9,0,0,0,0,0,0,0,0,0,-90,0,4,0,767621551,0,67,0,128,1,"[67,48,4,0,-28,13,-27,13,-26,12,-25,12,-25,12,-24,12,-23,12,-22,11,-21,11,-20,12,-19,11,-18,11,-17,11,-16,10,-15,10,-15,11,-14,10,-13,9,-13,8,-12,8,-12,8,-12,7,-11,6,-11,5,-11,4,-3,0,0,0,0,0,0,0,0,0,0,0,0,0,0,0,0,0,0,0,-2,0,-5,4,-6,4,-7,5,-8,7,-10,7,-11,8,-13,8,-15,8,-16,9,-18,9,-20,9,-21,9,-22,8,-23,8,-24,8,-24,8,-25,8,-25,7,-26,9,-27,10,-28,11,-28,11,-28,11,-29,12,-29,13,-30,12]",2026-01-09 12:15:50.893,52,70,83.5,130,4526.0,85,1,0,-9,0,0,0,-1.0,-1.0,-970.0
CSI_DATA,78579,60:60:1f:fd:0a:5b,-45,9,0,0,0,0,0,0,0,0,0,-90,0,4,0,767680719,0,67,0,128,1,"[67,48,4,0,-21,17,-20,17,-20,16,-20,16,-19,16,-18,16,-18,15,-17,15,-16,14,-15,15,-14,14,-14,13,-13,13,-12,13,-11,13,-11,13,-11,12,-11,11,-10,10,-10,9,-9,10,-9,9,-10,8,-10,6,-9,4,-3,1,0,0,0,0,0,0,0,0,0,0,0,0,0,0,0,0,0,0,-1,1,-4,4,-5,5,-5,6,-6,7,-7,8,-8,9,-9,10,-11,10,-12,11,-14,11,-16,12,-16,12,-17,12,-18,11,-18,11,-19,12,-19,12,-20,12,-20,13,-21,14,-21,15,-21,15,-22,15,-23,17,-23,17,-23,17]",2026-01-09 12:15:50.953,52,70,83.5,131,4526.0,85,1,0,-9,0,0,0,11.0,-6.0,-998.0
CSI_DATA,78585,60:60:1f:fd:0a:5b,-45,9,0,0,0,0,0,0,0,0,0,-90,0,4,0,767734058,0,67,0,128,1,"[67,48,4,0,-26,8,-25,8,-25,7,-24,7,-24,8,-23,8,-23,7,-22,7,-22,7,-21,8,-20,8,-19,8,-17,8,-17,8,-17,7,-16,7,-16,7,-15,6,-14,6,-14,5,-14,5,-13,5,-13,4,-13,2,-12,1,-3,0,0,0,0,0,0,0,0,0,0,0,0,0,0,0,0,0,0,0,-2,0,-6,2,-6,3,-7,3,-8,4,-9,5,-10,5,-12,5,-14,5,-15,5,-17,5,-19,5,-19,5,-20,4,-20,4,-21,3,-22,4,-22,3,-22,3,-23,4,-24,4,-25,5,-25,5,-26,5,-27,7,-27,8,-26,7]",2026-01-09 12:15:51.006,52,70,83.5,131,4526.0,85,1,0,-9,0,0,0,11.0,-6.0,-998.0
CSI_DATA,78591,60:60:1f:fd:0a:5b,-45,9,0,0,0,0,0,0,0,0,0,-90,0,4,0,767784286,0,67,0,128,1,"[67,48,4,0,13,-23,12,-23,13,-23,13,-22,12,-22,12,-22,11,-22,11,-21,10,-21,9,-21,9,-20,8,-19,8,-19,8,-18,7,-17,7,-17,7,-17,7,-16,7,-15,7,-14,7,-14,7,-14,7,-12,8,-11,10,-9,2,-3,0,0,0,0,0,0,0,0,0,0,0,0,0,0,0,0,0,0,0,-2,2,-5,2,-6,2,-7,2,-8,3,-9,3,-10,4,-11,6,-12,7,-13,8,-14,9,-16,10,-16,11,-16,12,-16,12,-16,13,-17,13,-17,13,-17,14,-18,14,-19,14,-20,15,-21,16,-21,16,-23,15,-23,15,-23]",2026-01-09 12:15:51.056,52,70,83.0,131,4522.0,85,0,0,-9,0,0,0,12.0,-3.0,-995.0
CSI_DATA,78597,60:60:1f:fd:0a:5b,-45,9,0,0,0,0,0,0,0,0,0,-90,0,4,0,767837564,0,67,0,128,1,"[67,48,4,0,-13,-28,-13,-27,-13,-27,-13,-26,-13,-26,-13,-25,-13,-25,-12,-24,-12,-23,-12,-22,-12,-21,-12,-20,-12,-19,-12,-19,-11,-18,-12,-17,-11,-17,-10,-16,-9,-16,-8,-16,-8,-16,-8,-15,-6,-15,-4,-14,-3,-14,-1,-4,0,0,0,0,0,0,0,0,0,0,0,0,0,0,0,0,0,0,-1,-2,-3,-5,-3,-6,-4,-6,-6,-7,-7,-8,-7,-10,-8,-11,-8,-13,-8,-15,-8,-16,-8,-18,-8,-19,-8,-20,-7,-21,-8,-22,-9,-23,-8,-23,-8,-24,-9,-24,-10,-25,-10,-26,-11,-27,-11,-27,-12,-28,-13,-29,-13,-29]",2026-01-09 12:15:51.110,52,70,83.0,131,4522.0,85,0,0,-9,0,0,0,12.0,-3.0,-995.0
CSI_DATA,78603,60:60:1f:fd:0a:5b,-46,9,0,0,0,0,0,0,0,0,0,-90,0,4,0,767893691,0,67,0,128,1,"[67,48,4,0,19,20,19,19,19,19,18,19,19,18,19,18,18,18,17,17,17,16,17,15,16,15,16,14,15,14,15,13,15,13,15,12,14,12,12,12,12,12,11,11,11,11,10,11,8,11,7,12,5,12,1,3,0,0,0,0,0,0,0,0,0,0,0,0,0,0,0,0,0,0,0,0,2,3,3,3,4,3,6,3,7,4,8,5,9,6,10,8,10,9,11,11,12,12,12,13,12,14,12,15,12,16,13,16,13,17,13,17,14,18,15,18,16,19,17,19,17,20,19,20,20,21,19,21]",2026-01-09 12:15:51.165,52,70,83.0,131,4526.0,85,0,0,-9,0,0,0,-14.0,0.0,-978.0
CSI_DATA,78609,60:60:1f:fd:0a:5b,-45,9,0,0,0,0,0,0,0,0,0,-90,0,4,0,767943017,0,67,0,128,1,"[67,48,4,0,-22,-19,-23,-20,-21,-19,-20,-19,-20,-18,-20,-18,-20,-19,-19,-18,-19,-17,-19,-16,-19,-15,-18,-15,-17,-14,-17,-14,-17,-14,-16,-13,-15,-13,-14,-13,-13,-13,-12,-13,-12,-13,-11,-13,-10,-13,-8,-13,-7,-13,-2,-4,0,0,0,0,0,0,0,0,0,0,0,0,0,0,0,0,0,0,-1,-2,-3,-4,-3,-4,-4,-4,-6,-5,-7,-5,-8,-6,-9,-7,-10,-8,-11,-10,-12,-11,-13,-12,-13,-13,-13,-14,-13,-16,-13,-16,-14,-16,-14,-17,-14,-18,-15,-18,-16,-19,-17,-19,-17,-19,-18,-20,-21,-20,-22,-20,-22,-21]",2026-01-09 12:15:51.216,52,70,83.0,131,4526.0,85,0,0,-9,0,0,0,-14.0,0.0,-978.0
CSI_DATA,78614,60:60:1f:fd:0a:5b,-46,13,0,0,0,0,0,0,0,0,0,-90,0,4,0,767998292,0,67,0,128,1,"[67,48,4,0,27,-1,27,-2,26,-1,26,-1,25,-2,25,-3,25,-2,24,-2,23,-2,23,-3,22,-3,22,-3,21,-3,20,-3,19,-3,19,-3,18,-3,16,-3,16,-2,17,-1,16,0,16,0,14,1,13,3,13,4,3,1,0,0,0,0,0,0,0,0,0,0,0,0,0,0,0,0,0,0,1,0,4,0,5,0,5,-1,7,-2,8,-2,10,-2,11,-2,12,-1,14,-1,16,-1,17,0,18,0,19,1,19,1,20,1,20,1,21,2,21,2,22,1,23,1,24,1,25,0,25,1,27,0,28,-1,28,-1]",2026-01-09 12:15:51.270,52,70,83.0,131,4521.0,84,0,0,-9,0,0,0,3.0,-11.0,-982.0
CSI_DATA,78621,60:60:1f:fd:0a:5b,-45,9,0,0,0,0,0,0,0,0,0,-90,0,4,0,768055226,0,67,0,128,1,"[67,48,4,0,-27,-10,-27,-10,-26,-10,-26,-10,-26,-9,-26,-9,-25,-9,-24,-9,-24,-9,-24,-7,-24,-7,-23,-7,-22,-7,-21,-7,-21,-7,-21,-7,-20,-7,-19,-8,-18,-8,-16,-8,-16,-8,-15,-8,-14,-9,-13,-10,-11,-10,-3,-3,0,0,0,0,0,0,0,0,0,0,0,0,0,0,0,0,0,0,-2,-1,-5,-4,-6,-3,-6,-3,-7,-3,-9,-3,-10,-4,-12,-4,-13,-5,-14,-6,-16,-7,-17,-7,-18,-8,-18,-9,-18,-10,-19,-10,-19,-10,-20,-11,-20,-11,-21,-11,-22,-11,-23,-11,-24,-11,-25,-11,-27,-11,-28,-10,-27,-11]",2026-01-09 12:15:51.328,52,70,83.0,131,4518.0,84,0,0,-9,0,0,0,5.0,-3.0,-978.0
CSI_DATA,78627,60:60:1f:fd:0a:5b,-45,9,0,0,0,0,0,0,0,0,0,-90,0,4,0,768110570,0,67,0,128,1,"[67,48,4,0,19,-26,18,-26,18,-25,19,-25,18,-25,17,-25,18,-24,18,-23,17,-23,15,-23,15,-23,15,-22,15,-21,15,-20,14,-20,14,-19,14,-18,14,-16,15,-16,14,-15,14,-14,14,-13,14,-12,14,-9,14,-7,3,-2,0,0,0,0,0,0,0,0,0,0,0,0,0,0,0,0,0,0,1,-1,5,-4,5,-5,5,-6,5,-7,5,-8,6,-9,7,-11,8,-12,10,-13,11,-14,12,-15,13,-16,14,-16,15,-16,16,-17,16,-18,17,-18,17,-18,18,-19,18,-20,18,-22,18,-22,19,-23,19,-25,19,-26,20,-26]",2026-01-09 12:15:51.382,52,70,83.0,131,4518.0,84,0,0,-9,0,0,0,5.0,-3.0,-978.0
CSI_DATA,78634,60:60:1f:fd:0a:5b,-46,9,0,0,0,0,0,0,0,0,0,-90,0,4,0,768165595,0,67,0,128,1,"[67,48,4,0,-21,-18,-21,-18,-20,-18,-20,-18,-21,-17,-21,-17,-20,-16,-19,-16,-19,-16,-20,-15,-19,-15,-19,-15,-19,-14,-18,-14,-17,-14,-16,-14,-14,-13,-13,-13,-13,-13,-13,-13,-12,-13,-11,-12,-10,-13,-7,-14,-6,-13,-2,-4,0,0,0,0,0,0,0,0,0,0,0,0,0,0,0,0,0,0,-1,-2,-3,-6,-3,-6,-4,-6,-5,-6,-6,-7,-7,-7,-9,-8,-9,-9,-10,-10,-11,-12,-12,-13,-13,-14,-13,-15,-13,-15,-13,-16,-14,-16,-14,-17,-14,-17,-15,-17,-17,-17,-18,-18,-18,-18,-19,-18,-20,-19,-21,-19,-21,-19]",2026-01-09 12:15:51.438,52,70,83.0,131,4524.0,83,0,0,-9,0,0,0,-9.0,5.0,-974.0
CSI_DATA,78640,60:60:1f:fd:0a:5b,-46,9,0,0,0,0,0,0,0,0,0,-90,0,4,0,768218497,0,67,0,128,1,"[67,48,4,0,16,-22,16,-22,16,-21,16,-21,15,-21,15,-21,15,-20,14,-20,14,-20,13,-20,13,-19,13,-19,12,-18,12,-17,12,-17,12,-16,12,-15,12,-14,12,-13,12,-13,11,-12,12,-11,12,-10,12,-8,13,-7,3,-2,0,0,0,0,0,0,0,0,0,0,0,0,0,0,0,0,0,0,1,-1,5,-4,5,-4,6,-5,6,-6,6,-6,7,-7,8,-8,9,-9,10,-11,11,-11,12,-12,13,-13,14,-13,14,-13,15,-13,15,-14,15,-14,16,-14,16,-15,16,-16,16,-17,16,-18,17,-19,17,-20,17,-21,17,-22]",2026-01-09 12:15:51.491,52,70,83.0,131,4524.0,83,0,0,-9,0,0,0,-9.0,5.0,-974.0
CSI_DATA,78646,60:60:1f:fd:0a:5b,-45,13,0,0,0,0,0,0,0,0,0,-90,0,4,0,768277683,0,67,0,128,1,"[67,48,4,0,-5,-30,-5,-29,-4,-28,-4,-27,-4,-27,-5,-27,-4,-26,-4,-25,-5,-25,-5,-24,-5,-24,-5,-23,-5,-23,-4,-22,-4,-21,-3,-20,-2,-19,-1,-18,-1,-18,-1,-17,0,-17,0,-17,1,-16,2,-15,4,-14,1,-4,0,0,0,0,0,0,0,0,0,0,0,0,0,0,0,0,0,0,0,-2,0,-8,0,-9,-1,-10,-2,-11,-2,-12,-2,-13,-2,-14,-2,-16,-1,-18,-1,-20,-2,-21,-1,-22,0,-22,0,-23,0,-23,-1,-24,0,-25,0,-25,-1,-26,-2,-26,-2,-27,-3,-28,-3,-28,-4,-30,-4,-31,-4,-31]",2026-01-09 12:15:51.550,52,70,83.0,131,4525.0,83,0,0,-9,0,0,0,-5.0,19.0,-976.0
CSI_DATA,78651,60:60:1f:fd:0a:5b,-45,9,0,0,0,0,0,0,0,0,0,-90,0,4,0,768337696,0,67,0,128,1,"[67,48,4,0,-27,-11,-27,-10,-25,-10,-25,-10,-25,-9,-25,-9,-24,-9,-23,-9,-23,-9,-22,-8,-22,-7,-22,-7,-21,-7,-20,-8,-19,-8,-19,-8,-17,-8,-16,-8,-15,-8,-14,-8,-14,-8,-13,-8,-12,-9,-10,-10,-9,-10,-3,-3,0,0,0,0,0,0,0,0,0,0,0,0,0,0,0,0,0,0,-2,-2,-8,-5,-8,-5,-9,-5,-11,-5,-12,-5,-13,-6,-14,-6,-15,-7,-17,-8,-18,-9,-19,-10,-20,-10,-20,-11,-20,-12,-21,-12,-22,-12,-22,-13,-22,-13,-23,-12,-24,-12,-24,-12,-25,-12,-26,-13,-27,-12,-28,-11,-28,-12]",2026-01-09 12:15:51.610,52,70,83.0,131,4525.0,83,0,0,-9,0,0,0,-5.0,19.0,-976.0
CSI_DATA,78656,60:60:1f:fd:0a:5b,-45,9,0,0,0,0,0,0,0,0,0,-90,0,4,0,768389002,0,67,0,128,1,"[67,48,4,0,31,-10,30,-10,29,-9,29,-9,28,-9,28,-9,27,-9,26,-8,25,-9,24,-9,24,-9,24,-9,23,-8,22,-7,21,-7,21,-6,20,-5,19,-4,18,-3,18,-2,17,-2,17,-2,16,0,15,2,15,3,3,0,0,0,0,0,0,0,0,0,0,0,0,0,0,0,0,0,0,0,2,-1,9,-2,9,-3,11,-3,12,-4,13,-5,15,-5,16,-5,18,-5,20,-5,22,-5,23,-5,24,-5,25,-5,26,-4,26,-4,27,-5,27,-4,28,-4,28,-5,29,-6,30,-6,30,-7,31,-6,33,-8,33,-10,33,-9]",2026-01-09 12:15:51.661,52,70,83.0,131,4521.0,82,0,0,-9,0,0,0,-1.0,0.0,-983.0
CSI_DATA,78662,60:60:1f:fd:0a:5b,-45,9,0,0,0,0,0,0,0,0,0,-90,0,4,0,768443694,0,67,0,128,1,"[67,48,4,0,22,-18,21,-19,21,-18,20,-17,19,-17,19,-17,19,-17,18,-16,17,-16,17,-16,17,-16,16,-15,16,-15,15,-13,15,-13,15,-12,15,-11,14,-9,14,-8,14,-8,14,-7,13,-7,13,-6,13,-4,14,-2,3,-1,0,0,0,0,0,0,0,0,0,0,0,0,0,0,0,0,0,0,2,-2,8,-5,8,-5,8,-6,9,-8,10,-8,11,-9,12,-10,13,-10,15,-10,16,-11,18,-12,19,-12,19,-12,20,-12,20,-13,21,-13,21,-13,22,-13,22,-14,22,-15,22,-16,22,-16,23,-16,23,-18,23,-19,23,-19]",2026-01-09 12:15:51.716,52,70,83.0,131,4521.0,82,0,0,-9,0,0,0,-1.0,0.0,-983.0
CSI_DATA,78668,60:60:1f:fd:0a:5b,-45,9,0,0,0,0,0,0,0,0,0,-90,0,4,0,768507514,0,67,0,128,1,"[67,48,4,0,-26,12,-25,12,-25,11,-24,10,-24,11,-23,11,-23,10,-22,9,-21,9,-21,10,-20,10,-20,9,-20,9,-19,8,-19,7,-18,7,-17,5,-16,4,-16,3,-16,3,-15,2,-15,2,-15,0,-15,-2,-14,-3,-4,-1,0,0,0,0,0,0,0,0,0,0,0,0,0,0,0,0,0,0,-3,0,-9,3,-9,3,-10,4,-11,5,-12,6,-13,6,-15,6,-16,7,-18,7,-19,7,-21,8,-22,7,-22,7,-23,7,-23,7,-24,8,-24,7,-24,7,-25,8,-25,8,-26,9,-25,9,-26,9,-27,11,-28,12,-27,12]",2026-01-09 12:15:51.780,52,70,83.0,131,4524.0,81,0,0,-9,0,0,0,5.0,-1.0,-1004.0
CSI_DATA,78675,60:60:1f:fd:0a:5b,-45,13,0,0,0,0,0,0,0,0,0,-90,0,4,0,768558100,0,67,0,128,1,"[67,48,4,0,-28,-3,-27,-2,-27,-3,-26,-3,-25,-2,-25,-2,-25,-2,-24,-2,-24,-2,-23,-1,-22,-1,-22,-1,-21,-2,-20,-3,-20,-3,-19,-3,-17,-4,-16,-4,-15,-5,-15,-5,-14,-5,-14,-6,-14,-6,-12,-7,-11,-8,-3,-2,0,0,0,0,0,0,0,0,0,0,0,0,0,0,0,0,0,0,-3,-1,-9,-3,-10,-3,-11,-3,-13,-2,-14,-2,-15,-3,-17,-3,-18,-4,-19,-5,-21,-6,-22,-6,-23,-6,-23,-7,-23,-7,-23,-7,-24,-7,-25,-7,-25,-8,-26,-7,-27,-7,-27,-6,-28,-5,-28,-6,-29,-5,-30,-4,-29,-4]",2026-01-09 12:15:51.830,52,60,83.0,131,4522.0,81,0,0,-9,0,0,0,18.0,-10.0,-996.0
CSI_DATA,78678,60:60:1f:fd:0a:5b,-45,9,0,0,0,0,0,0,0,0,0,-90,0,4,0,768608620,0,67,0,128,1,"[67,48,4,0,19,-20,18,-20,18,-19,18,-18,17,-18,16,-18,16,-18,15,-17,14,-17,14,-17,13,-17,13,-16,14,-15,14,-14,13,-13,13,-13,13,-11,13,-10,12,-9,12,-8,12,-8,12,-8,12,-6,12,-5,12,-4,3,-1,0,0,0,0,0,0,0,0,0,0,0,0,0,0,0,0,0,0,1,-2,7,-7,7,-8,8,-9,9,-10,10,-11,11,-12,12,-12,14,-13,15,-13,16,-14,17,-15,18,-16,19,-16,19,-15,19,-15,19,-16,20,-16,20,-15,20,-17,21,-17,21,-18,21,-18,21,-19,21,-20,21,-22,21,-22]",2026-01-09 12:15:51.881,52,60,83.0,131,4522.0,81,0,0,-9,0,0,0,18.0,-10.0,-996.0
CSI_DATA,78684,60:60:1f:fd:0a:5b,-45,9,0,0,0,0,0,0,0,0,0,-90,0,4,0,768663816,0,67,0,128,1,"[67,48,4,0,12,-25,11,-24,11,-23,11,-23,11,-22,10,-22,10,-21,9,-21,9,-20,8,-20,8,-20,8,-19,8,-18,9,-17,9,-16,9,-16,9,-14,9,-13,9,-12,9,-12,9,-12,9,-11,10,-10,10,-8,10,-7,2,-2,0,0,0,0,0,0,0,0,0,0,0,0,0,0,0,0,0,0,1,-3,5,-10,5,-10,5,-12,6,-13,7,-14,8,-15,9,-16,10,-16,11,-17,12,-18,13,-19,13,-20,14,-20,14,-20,14,-20,14,-21,14,-21,15,-21,15,-22,15,-23,14,-24,14,-24,14,-24,14,-25,13,-26,13,-26]",2026-01-09 12:15:51.936,52,60,83.0,132,4520.0,81,1,0,-9,0,0,0,20.0,-1.0,-1029.0
CSI_DATA,78691,60:60:1f:fd:0a:5b,-45,9,0,0,0,0,0,0,0,0,0,-90,0,4,0,768719197,0,67,0,128,1,"[67,48,4,0,23,12,23,11,22,11,21,11,20,10,20,10,20,10,19,9,19,9,19,8,18,8,18,8,17,9,16,9,15,10,15,10,13,10,12,9,11,9,10,9,10,9,10,9,9,9,8,10,7,10,1,2,0,0,0,0,0,0,0,0,0,0,0,0,0,0,0,0,0,0,2,1,8,5,9,5,10,6,12,6,13,7,14,8,14,10,15,11,16,12,17,13,18,13,18,14,19,14,19,15,20,15,20,15,19,15,20,15,21,15,22,15,22,15,23,15,23,15,24,14,25,13,25,14]",2026-01-09 12:15:51.991,52,60,83.0,132,4520.0,81,1,0,-9,0,0,0,20.0,-1.0,-1029.0
CSI_DATA,78696,60:60:1f:fd:0a:5b,-45,9,0,0,0,0,0,0,0,0,0,-90,0,4,0,768773629,0,67,0,128,1,"[67,48,4,0,-21,-15,-20,-15,-19,-15,-19,-14,-19,-13,-18,-13,-18,-12,-17,-12,-17,-12,-17,-11,-16,-11,-16,-11,-16,-11,-15,-12,-14,-12,-13,-12,-12,-12,-10,-11,-9,-11,-9,-11,-9,-11,-9,-11,-8,-11,-6,-11,-5,-12,-2,-3,0,0,0,0,0,0,0,0,0,0,0,0,0,0,0,0,0,0,-3,-2,-9,-7,-9,-7,-10,-8,-12,-8,-12,-10,-13,-11,-14,-12,-15,-14,-16,-15,-16,-16,-17,-16,-18,-17,-18,-18,-17,-18,-18,-18,-19,-18,-19,-19,-18,-19,-19,-18,-20,-18,-20,-18,-21,-18,-21,-18,-22,-18,-22,-18,-22,-17]",2026-01-09 12:15:52.046,52,60,84.0,132,4521.0,80,1,0,-9,0,0,0,2.0,4.0,-994.0
CSI_DATA,78702,60:60:1f:fd:0a:5b,-45,13,0,0,0,0,0,0,0,0,0,-90,0,4,0,768827727,0,67,0,128,1,"[67,48,4,0,-14,21,-13,21,-13,20,-13,19,-12,18,-12,18,-11,17,-11,17,-10,16,-10,16,-10,15,-10,15,-11,14,-11,13,-11,12,-10,12,-11,11,-11,10,-10,8,-10,8,-10,8,-10,8,-10,7,-11,6,-11,5,-3,1,0,0,0,0,0,0,0,0,0,0,0,0,0,0,0,0,0,0,-2,2,-7,8,-7,9,-8,10,-8,12,-10,13,-11,14,-12,15,-13,16,-15,17,-16,18,-17,19,-17,19,-18,19,-18,19,-18,19,-18,20,-18,20,-19,19,-18,20,-18,21,-18,22,-17,22,-17,22,-17,23,-16,24,-16,23]",2026-01-09 12:15:52.100,52,60,84.0,132,4521.0,80,1,0,-9,0,0,0,2.0,4.0,-994.0
CSI_DATA,78709,60:60:1f:fd:0a:5b,-46,9,0,0,0,0,0,0,0,0,0,-90,0,4,0,768880367,0,67,0,128,1,"[67,48,4,0,22,14,22,13,21,13,20,13,20,12,20,11,19,11,18,11,18,11,18,10,17,10,17,10,16,10,15,11,14,11,14,11,12,11,11,11,10,10,10,10,10,10,10,11,9,11,7,11,6,12,1,3,0,0,0,0,0,0,0,0,0,0,0,0,0,0,0,0,0,0,2,1,9,6,10,7,11,7,13,8,14,9,15,11,16,12,16,14,17,15,18,16,19,17,20,18,19,18,19,19,20,19,21,18,20,19,20,19,21,18,22,18,22,18,23,17,23,18,24,17,25,16,24,16]",2026-01-09 12:15:52.152,52,60,84.0,132,4517.0,80,0,0,-9,0,0,0,7.0,3.0,-1075.0
CSI_DATA,78715,60:60:1f:fd:0a:5b,-45,9,0,0,0,0,0,0,0,0,0,-90,0,4,0,768932793,0,67,0,128,1,"[67,48,4,0,11,-27,10,-27,10,-25,10,-24,9,-24,9,-24,9,-23,9,-22,8,-21,8,-21,8,-21,8,-20,8,-19,9,-18,9,-17,9,-17,10,-15,10,-14,10,-13,9,-12,9,-12,8,-12,9,-11,9,-10,10,-9,2,-3,0,0,0,0,0,0,0,0,0,0,0,0,0,0,0,0,0,0,1,-3,5,-11,6,-12,6,-14,7,-15,8,-17,9,-18,10,-19,12,-20,13,-21,14,-23,15,-24,15,-24,16,-24,17,-24,16,-25,16,-25,16,-25,16,-25,16,-26,15,-27,14,-28,14,-28,14,-28,14,-29,13,-30,13,-30]",2026-01-09 12:15:52.205,52,60,84.0,132,4517.0,80,0,0,-9,0,0,0,7.0,3.0,-1075.0
CSI_DATA,78722,60:60:1f:fd:0a:5b,-46,9,0,0,0,0,0,0,0,0,0,-90,0,4,0,768987244,0,67,0,128,1,"[67,48,4,0,3,26,4,25,3,24,3,24,3,23,3,22,3,22,3,21,3,20,3,20,3,20,2,19,2,19,1,19,1,18,0,18,-1,17,-2,16,-2,15,-2,14,-1,14,-1,14,-2,13,-3,13,-4,12,-1,3,0,0,0,0,0,0,0,0,0,0,0,0,0,0,0,0,0,0,0,2,1,10,1,11,1,13,1,14,1,16,1,18,0,19,0,21,-1,22,-1,24,-1,25,-1,26,-2,26,-2,26,-1,26,-1,27,-1,27,-1,27,0,27,0,28,1,28,1,28,1,28,2,29,3,29,3,29]",2026-01-09 12:15:52.259,52,60,84.0,132,4525.0,80,0,0,-9,0,0,0,7.0,2.0,-974.0
CSI_DATA,78728,60:60:1f:fd:0a:5b,-45,9,0,0,0,0,0,0,0,0,0,-90,0,4,0,769038671,0,67,0,128,1,"[67,48,4,0,12,21,11,21,11,20,10,19,10,18,10,18,9,17,9,17,9,16,9,16,8,16,8,16,7,16,6,15,6,15,5,15,4,15,2,14,2,13,2,13,2,13,3,12,2,12,1,12,0,12,0,3,0,0,0,0,0,0,0,0,0,0,0,0,0,0,0,0,0,0,1,2,4,9,5,10,6,11,6,12,7,13,7,15,7,17,7,18,7,19,8,21,8,22,8,22,8,23,8,23,8,22,8,23,8,23,8,23,9,23,10,23,11,23,11,23,11,23,12,23,13,24,13,24]",2026-01-09 12:15:52.310,52,60,84.0,132,4525.0,80,0,0,-9,0,0,0,7.0,2.0,-974.0
CSI_DATA,78735,60:60:1f:fd:0a:5b,-46,9,0,0,0,0,0,0,0,0,0,-90,0,4,0,769097530,0,67,0,128,1,"[67,48,4,0,-16,21,-15,20,-15,19,-14,18,-14,18,-13,18,-13,17,-13,17,-13,16,-12,16,-12,16,-13,16,-13,15,-13,14,-13,13,-13,13,-13,11,-13,10,-12,9,-12,9,-11,9,-11,9,-11,8,-11,7,-12,7,-3,1,0,0,0,0,0,0,0,0,0,0,0,0,0,0,0,0,0,0,-2,2,-7,8,-7,9,-8,11,-9,12,-11,13,-12,14,-13,15,-15,15,-16,16,-17,17,-18,18,-18,18,-19,18,-19,18,-19,18,-19,19,-19,19,-19,18,-19,19,-18,20,-18,21,-18,22,-18,21,-18,22,-17,23,-17,23]",2026-01-09 12:15:52.370,52,60,84.0,132,4534.0,81,0,0,-9,0,0,0,24.0,6.0,-1018.0
CSI_DATA,78742,60:60:1f:fd:0a:5b,-45,9,0,0,0,0,0,0,0,0,0,-90,0,4,0,769156957,0,67,0,128,1,"[67,48,4,0,23,4,23,3,22,4,21,4,21,3,20,3,19,4,18,4,18,3,18,3,17,3,17,4,17,4,16,5,15,5,15,6,13,6,12,6,11,6,11,5,11,5,10,5,10,5,9,6,9,6,2,1,0,0,0,0,0,0,0,0,0,0,0,0,0,0,0,0,0,0,2,0,10,2,11,2,12,2,14,2,15,3,17,4,17,4,18,6,20,7,21,7,22,7,22,8,22,8,22,9,23,8,23,8,23,8,23,8,24,7,24,7,25,6,25,6,25,6,26,5,26,5,26,5]",2026-01-09 12:15:52.428,52,60,84.0,132,4526.0,81,0,0,-9,0,0,0,20.0,7.0,-986.0
CSI_DATA,78748,60:60:1f:fd:0a:5b,-45,9,0,0,0,0,0,0,0,0,0,-90,0,4,0,769208221,0,67,0,128,1,"[67,48,4,0,-24,7,-23,7,-22,6,-21,5,-20,5,-20,5,-20,5,-19,4,-19,4,-18,4,-18,4,-18,4,-18,4,-17,3,-17,2,-17,2,-16,1,-14,0,-14,-1,-13,0,-13,0,-13,0,-12,0,-12,-1,-12,-2,-3,-1,0,0,0,0,0,0,0,0,0,0,0,0,0,0,0,0,0,0,-3,0,-10,2,-11,3,-13,3,-15,4,-16,4,-18,4,-19,3,-21,3,-22,2,-23,2,-24,2,-25,2,-25,2,-25,2,-25,2,-25,3,-25,3,-25,2,-25,4,-26,4,-26,5,-26,5,-26,5,-26,5,-26,6,-26,6]",2026-01-09 12:15:52.480,52,60,84.0,132,4526.0,81,0,0,-9,0,0,0,20.0,7.0,-986.0
CSI_DATA,78754,60:60:1f:fd:0a:5b,-46,9,0,0,0,0,0,0,0,0,0,-90,0,4,0,769271752,0,67,0,128,1,"[67,48,4,0,25,2,24,2,23,2,23,2,22,2,22,2,21,2,20,2,20,2,19,1,19,2,19,2,19,3,18,3,17,4,17,4,16,5,14,5,13,5,13,5,12,4,12,4,12,4,11,5,11,5,2,1,0,0,0,0,0,0,0,0,0,0,0,0,0,0,0,0,0,0,2,0,12,1,13,1,14,1,16,1,18,2,19,3,20,4,22,5,23,6,24,7,25,7,25,7,26,7,26,8,26,7,26,7,26,7,26,7,27,6,27,5,28,5,27,4,27,4,28,3,29,2,28,3]",2026-01-09 12:15:52.543,52,60,84.0,132,4525.0,81,0,0,-9,0,0,0,0.0,21.0,-991.0
